time,accel_x,accel_y,vel_x,vel_y,dis_x,dis_y,ang
0.00,0.0000,-9.8100,5.0000,8.6603,0.0000,20.0000,60.0000
0.00,-0.0250,-9.8350,5.0000,8.6504,0.0050,0.0050,59.9719
0.00,-0.0250,-9.8350,5.0000,8.6406,0.0100,0.0100,59.9438
0.00,-0.0250,-9.8350,4.9999,8.6307,0.0150,0.0150,59.9156
0.00,-0.0250,-9.8350,4.9999,8.6209,0.0200,0.0199,59.8874
0.00,-0.0250,-9.8350,4.9999,8.6111,0.0250,0.0249,59.8591
0.01,-0.0250,-9.8350,4.9999,8.6012,0.0300,0.0298,59.8308
0.01,-0.0250,-9.8350,4.9998,8.5914,0.0350,0.0348,59.8025
0.01,-0.0250,-9.8350,4.9998,8.5816,0.0400,0.0397,59.7741
0.01,-0.0250,-9.8350,4.9998,8.5717,0.0450,0.0446,59.7456
0.01,-0.0250,-9.8350,4.9998,8.5619,0.0500,0.0495,59.7171
0.01,-0.0250,-9.8350,4.9997,8.5521,0.0550,0.0544,59.6885
0.01,-0.0250,-9.8350,4.9997,8.5422,0.0600,0.0593,59.6599
0.01,-0.0250,-9.8350,4.9997,8.5324,0.0650,0.0642,59.6313
0.01,-0.0250,-9.8350,4.9997,8.5226,0.0700,0.0690,59.6025
0.02,-0.0250,-9.8350,4.9996,8.5127,0.0750,0.0739,59.5738
0.02,-0.0250,-9.8350,4.9996,8.5029,0.0800,0.0787,59.5450
0.02,-0.0250,-9.8350,4.9996,8.4931,0.0850,0.0836,59.5161
0.02,-0.0250,-9.8350,4.9996,8.4832,0.0900,0.0884,59.4872
0.02,-0.0250,-9.8350,4.9995,8.4734,0.0950,0.0932,59.4583
0.02,-0.0250,-9.8350,4.9995,8.4636,0.1000,0.0980,59.4293
0.02,-0.0250,-9.8350,4.9995,8.4537,0.1050,0.1028,59.4002
0.02,-0.0250,-9.8350,4.9995,8.4439,0.1100,0.1076,59.3711
0.02,-0.0250,-9.8350,4.9994,8.4340,0.1150,0.1124,59.3419
0.02,-0.0250,-9.8350,4.9994,8.4242,0.1200,0.1172,59.3127
0.02,-0.0250,-9.8350,4.9994,8.4144,0.1250,0.1219,59.2835
0.03,-0.0250,-9.8350,4.9994,8.4045,0.1300,0.1267,59.2542
0.03,-0.0250,-9.8350,4.9993,8.3947,0.1350,0.1314,59.2248
0.03,-0.0250,-9.8350,4.9993,8.3849,0.1400,0.1361,59.1954
0.03,-0.0250,-9.8350,4.9993,8.3750,0.1450,0.1409,59.1659
0.03,-0.0250,-9.8350,4.9993,8.3652,0.1500,0.1456,59.1364
0.03,-0.0250,-9.8350,4.9992,8.3554,0.1550,0.1503,59.1069
0.03,-0.0250,-9.8350,4.9992,8.3455,0.1600,0.1550,59.0773
0.03,-0.0250,-9.8350,4.9992,8.3357,0.1650,0.1596,59.0476
0.03,-0.0250,-9.8350,4.9992,8.3259,0.1700,0.1643,59.0179
0.04,-0.0250,-9.8350,4.9991,8.3160,0.1750,0.1690,58.9881
0.04,-0.0250,-9.8350,4.9991,8.3062,0.1800,0.1736,58.9583
0.04,-0.0250,-9.8350,4.9991,8.2964,0.1850,0.1783,58.9284
0.04,-0.0250,-9.8350,4.9991,8.2865,0.1900,0.1829,58.8985
0.04,-0.0250,-9.8350,4.9990,8.2767,0.1950,0.1875,58.8685
0.04,-0.0250,-9.8350,4.9990,8.2669,0.2000,0.1921,58.8385
0.04,-0.0250,-9.8350,4.9990,8.2570,0.2050,0.1967,58.8084
0.04,-0.0250,-9.8350,4.9990,8.2472,0.2100,0.2013,58.7783
0.04,-0.0250,-9.8350,4.9989,8.2373,0.2150,0.2059,58.7481
0.04,-0.0250,-9.8350,4.9989,8.2275,0.2200,0.2105,58.7178
0.04,-0.0250,-9.8350,4.9989,8.2177,0.2250,0.2150,58.6875
0.05,-0.0250,-9.8350,4.9989,8.2078,0.2300,0.2196,58.6572
0.05,-0.0250,-9.8350,4.9988,8.1980,0.2350,0.2241,58.6268
0.05,-0.0250,-9.8350,4.9988,8.1882,0.2400,0.2287,58.5963
0.05,-0.0250,-9.8350,4.9988,8.1783,0.2450,0.2332,58.5658
0.05,-0.0250,-9.8350,4.9988,8.1685,0.2500,0.2377,58.5353
0.05,-0.0250,-9.8350,4.9987,8.1587,0.2550,0.2422,58.5047
0.05,-0.0250,-9.8350,4.9987,8.1488,0.2600,0.2467,58.4740
0.05,-0.0250,-9.8350,4.9987,8.1390,0.2650,0.2512,58.4433
0.05,-0.0250,-9.8350,4.9987,8.1292,0.2700,0.2557,58.4125
0.06,-0.0250,-9.8350,4.9986,8.1193,0.2750,0.2601,58.3817
0.06,-0.0250,-9.8350,4.9986,8.1095,0.2800,0.2646,58.3508
0.06,-0.0250,-9.8350,4.9986,8.0997,0.2850,0.2690,58.3199
0.06,-0.0250,-9.8350,4.9986,8.0898,0.2900,0.2735,58.2889
0.06,-0.0250,-9.8350,4.9985,8.0800,0.2950,0.2779,58.2578
0.06,-0.0250,-9.8350,4.9985,8.0702,0.3000,0.2823,58.2267
0.06,-0.0250,-9.8350,4.9985,8.0603,0.3050,0.2867,58.1956
0.06,-0.0250,-9.8350,4.9985,8.0505,0.3100,0.2911,58.1643
0.06,-0.0250,-9.8350,4.9984,8.0407,0.3150,0.2955,58.1331
0.06,-0.0250,-9.8350,4.9984,8.0308,0.3199,0.2999,58.1018
0.06,-0.0250,-9.8350,4.9984,8.0210,0.3249,0.3042,58.0704
0.07,-0.0250,-9.8350,4.9984,8.0111,0.3299,0.3086,58.0389
0.07,-0.0250,-9.8350,4.9983,8.0013,0.3349,0.3129,58.0075
0.07,-0.0250,-9.8350,4.9983,7.9915,0.3399,0.3173,57.9759
0.07,-0.0250,-9.8350,4.9983,7.9816,0.3449,0.3216,57.9443
0.07,-0.0250,-9.8350,4.9983,7.9718,0.3499,0.3259,57.9127
0.07,-0.0250,-9.8350,4.9982,7.9620,0.3549,0.3302,57.8809
0.07,-0.0250,-9.8350,4.9982,7.9521,0.3599,0.3345,57.8492
0.07,-0.0250,-9.8350,4.9982,7.9423,0.3649,0.3388,57.8173
0.07,-0.0250,-9.8350,4.9982,7.9325,0.3699,0.3431,57.7855
0.08,-0.0250,-9.8350,4.9981,7.9226,0.3749,0.3473,57.7535
0.08,-0.0250,-9.8350,4.9981,7.9128,0.3799,0.3516,57.7215
0.08,-0.0250,-9.8350,4.9981,7.9030,0.3849,0.3558,57.6895
0.08,-0.0250,-9.8350,4.9981,7.8931,0.3899,0.3601,57.6574
0.08,-0.0250,-9.8350,4.9980,7.8833,0.3949,0.3643,57.6252
0.08,-0.0250,-9.8350,4.9980,7.8735,0.3999,0.3685,57.5930
0.08,-0.0250,-9.8350,4.9980,7.8636,0.4049,0.3727,57.5607
0.08,-0.0250,-9.8350,4.9980,7.8538,0.4099,0.3769,57.5284
0.08,-0.0250,-9.8350,4.9979,7.8440,0.4149,0.3811,57.4960
0.08,-0.0250,-9.8350,4.9979,7.8341,0.4199,0.3853,57.4635
0.08,-0.0250,-9.8350,4.9979,7.8243,0.4249,0.3895,57.4310
0.09,-0.0250,-9.8350,4.9979,7.8144,0.4299,0.3936,57.3984
0.09,-0.0250,-9.8350,4.9978,7.8046,0.4349,0.3978,57.3658
0.09,-0.0250,-9.8350,4.9978,7.7948,0.4399,0.4019,57.3331
0.09,-0.0250,-9.8350,4.9978,7.7849,0.4449,0.4060,57.3003
0.09,-0.0250,-9.8350,4.9978,7.7751,0.4499,0.4102,57.2675
0.09,-0.0250,-9.8350,4.9977,7.7653,0.4549,0.4143,57.2347
0.09,-0.0250,-9.8350,4.9977,7.7554,0.4599,0.4184,57.2018
0.09,-0.0250,-9.8350,4.9977,7.7456,0.4649,0.4225,57.1688
0.09,-0.0250,-9.8350,4.9977,7.7358,0.4699,0.4265,57.1357
0.10,-0.0250,-9.8350,4.9976,7.7259,0.4749,0.4306,57.1026
0.10,-0.0250,-9.8350,4.9976,7.7161,0.4799,0.4347,57.0695
0.10,-0.0250,-9.8350,4.9976,7.7063,0.4849,0.4387,57.0362
0.10,-0.0250,-9.8350,4.9976,7.6964,0.4899,0.4428,57.0030
0.10,-0.0250,-9.8350,4.9975,7.6866,0.4949,0.4468,56.9696
0.10,-0.0250,-9.8350,4.9975,7.6768,0.4999,0.4508,56.9362
0.10,-0.0250,-9.8350,4.9975,7.6669,0.5049,0.4548,56.9028
0.10,-0.0250,-9.8350,4.9975,7.6571,0.5099,0.4588,56.8692
0.10,-0.0250,-9.8350,4.9974,7.6473,0.5149,0.4628,56.8357
0.10,-0.0250,-9.8350,4.9974,7.6374,0.5199,0.4668,56.8020
0.10,-0.0250,-9.8350,4.9974,7.6276,0.5249,0.4708,56.7683
0.11,-0.0250,-9.8350,4.9974,7.6177,0.5299,0.4747,56.7345
0.11,-0.0250,-9.8350,4.9973,7.6079,0.5349,0.4787,56.7007
0.11,-0.0250,-9.8350,4.9973,7.5981,0.5399,0.4826,56.6668
0.11,-0.0250,-9.8350,4.9973,7.5882,0.5449,0.4866,56.6329
0.11,-0.0250,-9.8350,4.9973,7.5784,0.5498,0.4905,56.5989
0.11,-0.0250,-9.8350,4.9972,7.5686,0.5548,0.4944,56.5648
0.11,-0.0250,-9.8350,4.9972,7.5587,0.5598,0.4983,56.5307
0.11,-0.0250,-9.8350,4.9972,7.5489,0.5648,0.5022,56.4965
0.11,-0.0250,-9.8350,4.9972,7.5391,0.5698,0.5061,56.4622
0.12,-0.0250,-9.8350,4.9971,7.5292,0.5748,0.5100,56.4279
0.12,-0.0250,-9.8350,4.9971,7.5194,0.5798,0.5138,56.3935
0.12,-0.0250,-9.8350,4.9971,7.5096,0.5848,0.5177,56.3591
0.12,-0.0250,-9.8350,4.9971,7.4997,0.5898,0.5215,56.3246
0.12,-0.0250,-9.8350,4.9970,7.4899,0.5948,0.5254,56.2900
0.12,-0.0250,-9.8350,4.9970,7.4801,0.5998,0.5292,56.2554
0.12,-0.0250,-9.8350,4.9970,7.4702,0.6048,0.5330,56.2207
0.12,-0.0250,-9.8350,4.9970,7.4604,0.6098,0.5368,56.1859
0.12,-0.0250,-9.8350,4.9969,7.4506,0.6148,0.5406,56.1511
0.12,-0.0250,-9.8350,4.9969,7.4407,0.6198,0.5444,56.1162
0.12,-0.0250,-9.8350,4.9969,7.4309,0.6248,0.5482,56.0812
0.13,-0.0250,-9.8350,4.9969,7.4210,0.6298,0.5519,56.0462
0.13,-0.0250,-9.8350,4.9968,7.4112,0.6348,0.5557,56.0111
0.13,-0.0250,-9.8350,4.9968,7.4014,0.6398,0.5594,55.9760
0.13,-0.0250,-9.8350,4.9968,7.3915,0.6448,0.5632,55.9408
0.13,-0.0250,-9.8350,4.9968,7.3817,0.6498,0.5669,55.9055
0.13,-0.0250,-9.8350,4.9967,7.3719,0.6548,0.5706,55.8702
0.13,-0.0250,-9.8350,4.9967,7.3620,0.6598,0.5743,55.8348
0.13,-0.0250,-9.8350,4.9967,7.3522,0.6648,0.5780,55.7993
0.13,-0.0250,-9.8350,4.9967,7.3424,0.6698,0.5817,55.7638
0.14,-0.0250,-9.8350,4.9966,7.3325,0.6748,0.5854,55.7282
0.14,-0.0250,-9.8350,4.9966,7.3227,0.6798,0.5890,55.6925
0.14,-0.0250,-9.8350,4.9966,7.3129,0.6848,0.5927,55.6568
0.14,-0.0250,-9.8350,4.9966,7.3030,0.6898,0.5964,55.6210
0.14,-0.0250,-9.8350,4.9965,7.2932,0.6948,0.6000,55.5852
0.14,-0.0250,-9.8350,4.9965,7.2834,0.6998,0.6036,55.5492
0.14,-0.0250,-9.8350,4.9965,7.2735,0.7048,0.6072,55.5132
0.14,-0.0250,-9.8350,4.9965,7.2637,0.7097,0.6108,55.4772
0.14,-0.0250,-9.8350,4.9964,7.2539,0.7147,0.6144,55.4411
0.14,-0.0250,-9.8350,4.9964,7.2440,0.7197,0.6180,55.4049
0.14,-0.0250,-9.8350,4.9964,7.2342,0.7247,0.6216,55.3686
0.15,-0.0250,-9.8350,4.9964,7.2243,0.7297,0.6252,55.3323
0.15,-0.0250,-9.8350,4.9963,7.2145,0.7347,0.6287,55.2959
0.15,-0.0250,-9.8350,4.9963,7.2047,0.7397,0.6323,55.2594
0.15,-0.0250,-9.8350,4.9963,7.1948,0.7447,0.6358,55.2229
0.15,-0.0250,-9.8350,4.9963,7.1850,0.7497,0.6394,55.1863
0.15,-0.0250,-9.8350,4.9962,7.1752,0.7547,0.6429,55.1497
0.15,-0.0250,-9.8350,4.9962,7.1653,0.7597,0.6464,55.1129
0.15,-0.0250,-9.8350,4.9962,7.1555,0.7647,0.6499,55.0761
0.15,-0.0250,-9.8350,4.9962,7.1457,0.7697,0.6534,55.0393
0.16,-0.0250,-9.8350,4.9961,7.1358,0.7747,0.6569,55.0023
0.16,-0.0250,-9.8350,4.9961,7.1260,0.7797,0.6603,54.9653
0.16,-0.0250,-9.8350,4.9961,7.1162,0.7847,0.6638,54.9283
0.16,-0.0250,-9.8350,4.9961,7.1063,0.7897,0.6672,54.8911
0.16,-0.0250,-9.8350,4.9960,7.0965,0.7947,0.6707,54.8539
0.16,-0.0250,-9.8350,4.9960,7.0867,0.7997,0.6741,54.8166
0.16,-0.0250,-9.8350,4.9960,7.0768,0.8047,0.6775,54.7793
0.16,-0.0250,-9.8350,4.9960,7.0670,0.8097,0.6809,54.7419
0.16,-0.0250,-9.8350,4.9959,7.0572,0.8147,0.6843,54.7044
0.16,-0.0250,-9.8350,4.9959,7.0473,0.8197,0.6877,54.6668
0.16,-0.0250,-9.8350,4.9959,7.0375,0.8247,0.6911,54.6292
0.17,-0.0250,-9.8350,4.9959,7.0277,0.8297,0.6945,54.5915
0.17,-0.0250,-9.8350,4.9958,7.0178,0.8347,0.6979,54.5538
0.17,-0.0250,-9.8350,4.9958,7.0080,0.8396,0.7012,54.5159
0.17,-0.0250,-9.8350,4.9958,6.9981,0.8446,0.7046,54.4780
0.17,-0.0250,-9.8350,4.9958,6.9883,0.8496,0.7079,54.4400
0.17,-0.0250,-9.8350,4.9957,6.9785,0.8546,0.7112,54.4020
0.17,-0.0250,-9.8350,4.9957,6.9686,0.8596,0.7145,54.3639
0.17,-0.0250,-9.8350,4.9957,6.9588,0.8646,0.7178,54.3257
0.17,-0.0250,-9.8350,4.9957,6.9490,0.8696,0.7211,54.2874
0.18,-0.0250,-9.8350,4.9956,6.9391,0.8746,0.7244,54.2491
0.18,-0.0250,-9.8350,4.9956,6.9293,0.8796,0.7277,54.2107
0.18,-0.0250,-9.8350,4.9956,6.9195,0.8846,0.7309,54.1722
0.18,-0.0250,-9.8350,4.9956,6.9096,0.8896,0.7342,54.1336
0.18,-0.0250,-9.8350,4.9955,6.8998,0.8946,0.7374,54.0950
0.18,-0.0250,-9.8350,4.9955,6.8900,0.8996,0.7407,54.0563
0.18,-0.0250,-9.8350,4.9955,6.8801,0.9046,0.7439,54.0176
0.18,-0.0250,-9.8350,4.9955,6.8703,0.9096,0.7471,53.9787
0.18,-0.0250,-9.8350,4.9954,6.8605,0.9146,0.7503,53.9398
0.18,-0.0250,-9.8350,4.9954,6.8506,0.9196,0.7535,53.9008
0.18,-0.0250,-9.8350,4.9954,6.8408,0.9246,0.7567,53.8618
0.19,-0.0250,-9.8350,4.9954,6.8310,0.9296,0.7599,53.8226
0.19,-0.0250,-9.8350,4.9953,6.8211,0.9346,0.7630,53.7834
0.19,-0.0250,-9.8350,4.9953,6.8113,0.9396,0.7662,53.7441
0.19,-0.0250,-9.8350,4.9953,6.8014,0.9446,0.7693,53.7048
0.19,-0.0250,-9.8350,4.9953,6.7916,0.9495,0.7725,53.6654
0.19,-0.0250,-9.8350,4.9952,6.7818,0.9545,0.7756,53.6259
0.19,-0.0250,-9.8350,4.9952,6.7719,0.9595,0.7787,53.5863
0.19,-0.0250,-9.8350,4.9952,6.7621,0.9645,0.7818,53.5466
0.19,-0.0250,-9.8350,4.9952,6.7523,0.9695,0.7849,53.5069
0.20,-0.0250,-9.8350,4.9951,6.7424,0.9745,0.7880,53.4671
0.20,-0.0250,-9.8350,4.9951,6.7326,0.9795,0.7911,53.4272
0.20,-0.0250,-9.8350,4.9951,6.7228,0.9845,0.7942,53.3873
0.20,-0.0250,-9.8350,4.9951,6.7129,0.9895,0.7972,53.3473
0.20,-0.0250,-9.8350,4.9950,6.7031,0.9945,0.8003,53.3071
0.20,-0.0250,-9.8350,4.9950,6.6933,0.9995,0.8033,53.2670
0.20,-0.0250,-9.8350,4.9950,6.6834,1.0045,0.8063,53.2267
0.20,-0.0249,-9.8349,4.9950,6.6736,1.0095,0.8093,53.1864
0.20,-0.0249,-9.8349,4.9949,6.6638,1.0145,0.8124,53.1460
0.20,-0.0249,-9.8349,4.9949,6.6539,1.0195,0.8154,53.1055
0.20,-0.0249,-9.8349,4.9949,6.6441,1.0245,0.8183,53.0649
0.21,-0.0249,-9.8349,4.9949,6.6343,1.0295,0.8213,53.0243
0.21,-0.0249,-9.8349,4.9948,6.6244,1.0345,0.8243,52.9836
0.21,-0.0249,-9.8349,4.9948,6.6146,1.0395,0.8273,52.9428
0.21,-0.0249,-9.8349,4.9948,6.6047,1.0445,0.8302,52.9019
0.21,-0.0249,-9.8349,4.9948,6.5949,1.0494,0.8331,52.8610
0.21,-0.0249,-9.8349,4.9947,6.5851,1.0544,0.8361,52.8199
0.21,-0.0249,-9.8349,4.9947,6.5752,1.0594,0.8390,52.7788
0.21,-0.0249,-9.8349,4.9947,6.5654,1.0644,0.8419,52.7377
0.21,-0.0249,-9.8349,4.9947,6.5556,1.0694,0.8448,52.6964
0.22,-0.0249,-9.8349,4.9946,6.5457,1.0744,0.8477,52.6551
0.22,-0.0249,-9.8349,4.9946,6.5359,1.0794,0.8506,52.6136
0.22,-0.0249,-9.8349,4.9946,6.5261,1.0844,0.8534,52.5721
0.22,-0.0249,-9.8349,4.9946,6.5162,1.0894,0.8563,52.5306
0.22,-0.0249,-9.8349,4.9945,6.5064,1.0944,0.8592,52.4889
0.22,-0.0249,-9.8349,4.9945,6.4966,1.0994,0.8620,52.4472
0.22,-0.0249,-9.8349,4.9945,6.4867,1.1044,0.8648,52.4054
0.22,-0.0249,-9.8349,4.9945,6.4769,1.1094,0.8676,52.3635
0.22,-0.0249,-9.8349,4.9944,6.4671,1.1144,0.8705,52.3215
0.22,-0.0249,-9.8349,4.9944,6.4572,1.1194,0.8733,52.2794
0.22,-0.0249,-9.8349,4.9944,6.4474,1.1244,0.8761,52.2373
0.23,-0.0249,-9.8349,4.9944,6.4376,1.1294,0.8788,52.1951
0.23,-0.0249,-9.8349,4.9943,6.4277,1.1344,0.8816,52.1528
0.23,-0.0249,-9.8349,4.9943,6.4179,1.1394,0.8844,52.1104
0.23,-0.0249,-9.8349,4.9943,6.4081,1.1443,0.8871,52.0680
0.23,-0.0249,-9.8349,4.9943,6.3982,1.1493,0.8899,52.0254
0.23,-0.0249,-9.8349,4.9942,6.3884,1.1543,0.8926,51.9828
0.23,-0.0249,-9.8349,4.9942,6.3785,1.1593,0.8953,51.9401
0.23,-0.0249,-9.8349,4.9942,6.3687,1.1643,0.8980,51.8973
0.23,-0.0249,-9.8349,4.9942,6.3589,1.1693,0.9007,51.8545
0.24,-0.0249,-9.8349,4.9941,6.3490,1.1743,0.9034,51.8115
0.24,-0.0249,-9.8349,4.9941,6.3392,1.1793,0.9061,51.7685
0.24,-0.0249,-9.8349,4.9941,6.3294,1.1843,0.9088,51.7254
0.24,-0.0249,-9.8349,4.9941,6.3195,1.1893,0.9115,51.6822
0.24,-0.0249,-9.8349,4.9940,6.3097,1.1943,0.9141,51.6389
0.24,-0.0249,-9.8349,4.9940,6.2999,1.1993,0.9168,51.5955
0.24,-0.0249,-9.8349,4.9940,6.2900,1.2043,0.9194,51.5521
0.24,-0.0249,-9.8349,4.9940,6.2802,1.2093,0.9220,51.5086
0.24,-0.0249,-9.8349,4.9939,6.2704,1.2143,0.9246,51.4649
0.24,-0.0249,-9.8349,4.9939,6.2605,1.2193,0.9272,51.4212
0.24,-0.0249,-9.8349,4.9939,6.2507,1.2243,0.9298,51.3775
0.25,-0.0249,-9.8349,4.9939,6.2409,1.2292,0.9324,51.3336
0.25,-0.0249,-9.8349,4.9938,6.2310,1.2342,0.9350,51.2896
0.25,-0.0249,-9.8349,4.9938,6.2212,1.2392,0.9376,51.2456
0.25,-0.0249,-9.8349,4.9938,6.2114,1.2442,0.9401,51.2015
0.25,-0.0249,-9.8349,4.9938,6.2015,1.2492,0.9427,51.1573
0.25,-0.0249,-9.8349,4.9937,6.1917,1.2542,0.9452,51.1130
0.25,-0.0249,-9.8349,4.9937,6.1818,1.2592,0.9477,51.0686
0.25,-0.0249,-9.8349,4.9937,6.1720,1.2642,0.9502,51.0242
0.25,-0.0249,-9.8349,4.9937,6.1622,1.2692,0.9527,50.9796
0.26,-0.0249,-9.8349,4.9936,6.1523,1.2742,0.9552,50.9350
0.26,-0.0249,-9.8349,4.9936,6.1425,1.2792,0.9577,50.8903
0.26,-0.0249,-9.8349,4.9936,6.1327,1.2842,0.9602,50.8455
0.26,-0.0249,-9.8349,4.9936,6.1228,1.2892,0.9627,50.8006
0.26,-0.0249,-9.8349,4.9935,6.1130,1.2942,0.9651,50.7556
0.26,-0.0249,-9.8349,4.9935,6.1032,1.2992,0.9676,50.7105
0.26,-0.0249,-9.8349,4.9935,6.0933,1.3042,0.9700,50.6654
0.26,-0.0249,-9.8349,4.9935,6.0835,1.3091,0.9724,50.6201
0.26,-0.0249,-9.8349,4.9934,6.0737,1.3141,0.9749,50.5748
0.26,-0.0249,-9.8349,4.9934,6.0638,1.3191,0.9773,50.5294
0.26,-0.0249,-9.8349,4.9934,6.0540,1.3241,0.9797,50.4839
0.27,-0.0249,-9.8349,4.9934,6.0442,1.3291,0.9821,50.4383
0.27,-0.0249,-9.8349,4.9933,6.0343,1.3341,0.9844,50.3926
0.27,-0.0249,-9.8349,4.9933,6.0245,1.3391,0.9868,50.3468
0.27,-0.0249,-9.8349,4.9933,6.0147,1.3441,0.9892,50.3010
0.27,-0.0249,-9.8349,4.9933,6.0048,1.3491,0.9915,50.2550
0.27,-0.0249,-9.8349,4.9932,5.9950,1.3541,0.9939,50.2090
0.27,-0.0249,-9.8349,4.9932,5.9852,1.3591,0.9962,50.1629
0.27,-0.0249,-9.8349,4.9932,5.9753,1.3641,0.9985,50.1166
0.27,-0.0249,-9.8349,4.9932,5.9655,1.3691,1.0008,50.0703
0.28,-0.0249,-9.8349,4.9931,5.9556,1.3741,1.0031,50.0239
0.28,-0.0249,-9.8349,4.9931,5.9458,1.3791,1.0054,49.9774
0.28,-0.0249,-9.8349,4.9931,5.9360,1.3840,1.0077,49.9309
0.28,-0.0249,-9.8349,4.9931,5.9261,1.3890,1.0100,49.8842
0.28,-0.0249,-9.8349,4.9930,5.9163,1.3940,1.0122,49.8374
0.28,-0.0249,-9.8349,4.9930,5.9065,1.3990,1.0145,49.7906
0.28,-0.0249,-9.8349,4.9930,5.8966,1.4040,1.0167,49.7437
0.28,-0.0249,-9.8349,4.9930,5.8868,1.4090,1.0189,49.6966
0.28,-0.0249,-9.8349,4.9929,5.8770,1.4140,1.0212,49.6495
0.28,-0.0249,-9.8349,4.9929,5.8671,1.4190,1.0234,49.6023
0.29,-0.0249,-9.8349,4.9929,5.8573,1.4240,1.0256,49.5550
0.29,-0.0249,-9.8349,4.9929,5.8475,1.4290,1.0278,49.5076
0.29,-0.0249,-9.8349,4.9928,5.8376,1.4340,1.0300,49.4601
0.29,-0.0249,-9.8349,4.9928,5.8278,1.4390,1.0321,49.4125
0.29,-0.0249,-9.8349,4.9928,5.8180,1.4440,1.0343,49.3648
0.29,-0.0249,-9.8349,4.9928,5.8081,1.4490,1.0364,49.3170
0.29,-0.0249,-9.8349,4.9927,5.7983,1.4539,1.0386,49.2692
0.29,-0.0249,-9.8349,4.9927,5.7885,1.4589,1.0407,49.2212
0.29,-0.0249,-9.8349,4.9927,5.7786,1.4639,1.0428,49.1732
0.29,-0.0249,-9.8349,4.9927,5.7688,1.4689,1.0450,49.1250
0.30,-0.0249,-9.8349,4.9926,5.7590,1.4739,1.0471,49.0768
0.30,-0.0249,-9.8349,4.9926,5.7491,1.4789,1.0492,49.0284
0.30,-0.0249,-9.8349,4.9926,5.7393,1.4839,1.0512,48.9800
0.30,-0.0249,-9.8349,4.9926,5.7294,1.4889,1.0533,48.9315
0.30,-0.0249,-9.8349,4.9925,5.7196,1.4939,1.0554,48.8829
0.30,-0.0249,-9.8349,4.9925,5.7098,1.4989,1.0574,48.8342
0.30,-0.0249,-9.8349,4.9925,5.6999,1.5039,1.0595,48.7853
0.30,-0.0249,-9.8349,4.9925,5.6901,1.5089,1.0615,48.7364
0.30,-0.0249,-9.8349,4.9924,5.6803,1.5139,1.0635,48.6874
0.30,-0.0249,-9.8349,4.9924,5.6704,1.5188,1.0655,48.6383
0.30,-0.0249,-9.8349,4.9924,5.6606,1.5238,1.0676,48.5891
0.31,-0.0249,-9.8349,4.9924,5.6508,1.5288,1.0695,48.5399
0.31,-0.0249,-9.8349,4.9923,5.6409,1.5338,1.0715,48.4905
0.31,-0.0249,-9.8349,4.9923,5.6311,1.5388,1.0735,48.4410
0.31,-0.0249,-9.8349,4.9923,5.6213,1.5438,1.0755,48.3914
0.31,-0.0249,-9.8349,4.9923,5.6114,1.5488,1.0774,48.3417
0.31,-0.0249,-9.8349,4.9922,5.6016,1.5538,1.0794,48.2920
0.31,-0.0249,-9.8349,4.9922,5.5918,1.5588,1.0813,48.2421
0.31,-0.0249,-9.8349,4.9922,5.5819,1.5638,1.0832,48.1921
0.31,-0.0249,-9.8349,4.9922,5.5721,1.5688,1.0852,48.1420
0.32,-0.0249,-9.8349,4.9921,5.5623,1.5738,1.0871,48.0919
0.32,-0.0249,-9.8349,4.9921,5.5524,1.5788,1.0890,48.0416
0.32,-0.0249,-9.8349,4.9921,5.5426,1.5837,1.0908,47.9912
0.32,-0.0249,-9.8349,4.9921,5.5327,1.5887,1.0927,47.9408
0.32,-0.0249,-9.8349,4.9921,5.5229,1.5937,1.0946,47.8902
0.32,-0.0249,-9.8349,4.9920,5.5131,1.5987,1.0965,47.8395
0.32,-0.0249,-9.8349,4.9920,5.5032,1.6037,1.0983,47.7888
0.32,-0.0249,-9.8349,4.9920,5.4934,1.6087,1.1001,47.7379
0.32,-0.0249,-9.8349,4.9920,5.4836,1.6137,1.1020,47.6870
0.32,-0.0249,-9.8349,4.9919,5.4737,1.6187,1.1038,47.6359
0.32,-0.0249,-9.8349,4.9919,5.4639,1.6237,1.1056,47.5847
0.33,-0.0249,-9.8349,4.9919,5.4541,1.6287,1.1074,47.5335
0.33,-0.0249,-9.8349,4.9919,5.4442,1.6337,1.1092,47.4821
0.33,-0.0249,-9.8349,4.9918,5.4344,1.6387,1.1110,47.4306
0.33,-0.0249,-9.8349,4.9918,5.4246,1.6437,1.1127,47.3791
0.33,-0.0249,-9.8349,4.9918,5.4147,1.6486,1.1145,47.3274
0.33,-0.0249,-9.8349,4.9918,5.4049,1.6536,1.1162,47.2756
0.33,-0.0249,-9.8349,4.9917,5.3951,1.6586,1.1180,47.2238
0.33,-0.0249,-9.8349,4.9917,5.3852,1.6636,1.1197,47.1718
0.33,-0.0249,-9.8349,4.9917,5.3754,1.6686,1.1214,47.1197
0.34,-0.0249,-9.8349,4.9917,5.3656,1.6736,1.1231,47.0675
0.34,-0.0249,-9.8349,4.9916,5.3557,1.6786,1.1248,47.0152
0.34,-0.0249,-9.8349,4.9916,5.3459,1.6836,1.1265,46.9629
0.34,-0.0249,-9.8349,4.9916,5.3361,1.6886,1.1282,46.9104
0.34,-0.0249,-9.8349,4.9916,5.3262,1.6936,1.1299,46.8578
0.34,-0.0249,-9.8349,4.9915,5.3164,1.6986,1.1315,46.8051
0.34,-0.0249,-9.8349,4.9915,5.3065,1.7036,1.1332,46.7523
0.34,-0.0249,-9.8349,4.9915,5.2967,1.7085,1.1348,46.6994
0.34,-0.0249,-9.8349,4.9915,5.2869,1.7135,1.1365,46.6464
0.34,-0.0249,-9.8349,4.9914,5.2770,1.7185,1.1381,46.5933
0.34,-0.0249,-9.8349,4.9914,5.2672,1.7235,1.1397,46.5400
0.35,-0.0249,-9.8349,4.9914,5.2574,1.7285,1.1413,46.4867
0.35,-0.0249,-9.8349,4.9914,5.2475,1.7335,1.1429,46.4333
0.35,-0.0249,-9.8349,4.9913,5.2377,1.7385,1.1445,46.3797
0.35,-0.0249,-9.8349,4.9913,5.2279,1.7435,1.1460,46.3261
0.35,-0.0249,-9.8349,4.9913,5.2180,1.7485,1.1476,46.2724
0.35,-0.0249,-9.8349,4.9913,5.2082,1.7535,1.1492,46.2185
0.35,-0.0249,-9.8349,4.9912,5.1984,1.7585,1.1507,46.1645
0.35,-0.0249,-9.8349,4.9912,5.1885,1.7634,1.1522,46.1105
0.35,-0.0249,-9.8349,4.9912,5.1787,1.7684,1.1538,46.0563
0.36,-0.0249,-9.8349,4.9912,5.1689,1.7734,1.1553,46.0020
0.36,-0.0249,-9.8349,4.9911,5.1590,1.7784,1.1568,45.9476
0.36,-0.0249,-9.8349,4.9911,5.1492,1.7834,1.1583,45.8932
0.36,-0.0249,-9.8349,4.9911,5.1394,1.7884,1.1598,45.8385
0.36,-0.0249,-9.8349,4.9911,5.1295,1.7934,1.1612,45.7838
0.36,-0.0249,-9.8349,4.9910,5.1197,1.7984,1.1627,45.7290
0.36,-0.0249,-9.8349,4.9910,5.1099,1.8034,1.1642,45.6741
0.36,-0.0249,-9.8349,4.9910,5.1000,1.8084,1.1656,45.6191
0.36,-0.0249,-9.8349,4.9910,5.0902,1.8134,1.1670,45.5639
0.36,-0.0249,-9.8349,4.9909,5.0803,1.8183,1.1685,45.5087
0.36,-0.0249,-9.8349,4.9909,5.0705,1.8233,1.1699,45.4533
0.37,-0.0249,-9.8349,4.9909,5.0607,1.8283,1.1713,45.3978
0.37,-0.0249,-9.8349,4.9909,5.0508,1.8333,1.1727,45.3423
0.37,-0.0249,-9.8349,4.9908,5.0410,1.8383,1.1741,45.2866
0.37,-0.0249,-9.8349,4.9908,5.0312,1.8433,1.1754,45.2308
0.37,-0.0249,-9.8349,4.9908,5.0213,1.8483,1.1768,45.1748
0.37,-0.0249,-9.8349,4.9908,5.0115,1.8533,1.1782,45.1188
0.37,-0.0249,-9.8349,4.9907,5.0017,1.8583,1.1795,45.0627
0.37,-0.0249,-9.8349,4.9907,4.9918,1.8633,1.1808,45.0065
0.37,-0.0249,-9.8349,4.9907,4.9820,1.8683,1.1822,44.9501
0.38,-0.0249,-9.8349,4.9907,4.9722,1.8732,1.1835,44.8936
0.38,-0.0249,-9.8349,4.9906,4.9623,1.8782,1.1848,44.8371
0.38,-0.0249,-9.8349,4.9906,4.9525,1.8832,1.1861,44.7804
0.38,-0.0249,-9.8349,4.9906,4.9427,1.8882,1.1874,44.7236
0.38,-0.0249,-9.8349,4.9906,4.9328,1.8932,1.1887,44.6666
0.38,-0.0249,-9.8349,4.9905,4.9230,1.8982,1.1899,44.6096
0.38,-0.0249,-9.8349,4.9905,4.9132,1.9032,1.1912,44.5525
0.38,-0.0249,-9.8349,4.9905,4.9033,1.9082,1.1924,44.4952
0.38,-0.0249,-9.8349,4.9905,4.8935,1.9132,1.1937,44.4379
0.38,-0.0249,-9.8349,4.9904,4.8837,1.9182,1.1949,44.3804
0.38,-0.0249,-9.8349,4.9904,4.8738,1.9232,1.1961,44.3228
0.39,-0.0249,-9.8349,4.9904,4.8640,1.9281,1.1973,44.2651
0.39,-0.0249,-9.8349,4.9904,4.8541,1.9331,1.1985,44.2073
0.39,-0.0249,-9.8349,4.9903,4.8443,1.9381,1.1997,44.1493
0.39,-0.0249,-9.8349,4.9903,4.8345,1.9431,1.2009,44.0913
0.39,-0.0249,-9.8349,4.9903,4.8246,1.9481,1.2021,44.0331
0.39,-0.0249,-9.8349,4.9903,4.8148,1.9531,1.2032,43.9748
0.39,-0.0249,-9.8349,4.9902,4.8050,1.9581,1.2044,43.9164
0.39,-0.0249,-9.8349,4.9902,4.7951,1.9631,1.2055,43.8579
0.39,-0.0249,-9.8349,4.9902,4.7853,1.9681,1.2066,43.7993
0.40,-0.0249,-9.8349,4.9902,4.7755,1.9731,1.2078,43.7406
0.40,-0.0249,-9.8349,4.9901,4.7656,1.9780,1.2089,43.6817
0.40,-0.0249,-9.8349,4.9901,4.7558,1.9830,1.2100,43.6227
0.40,-0.0249,-9.8349,4.9901,4.7460,1.9880,1.2111,43.5636
0.40,-0.0249,-9.8349,4.9901,4.7361,1.9930,1.2121,43.5044
0.40,-0.0249,-9.8349,4.9900,4.7263,1.9980,1.2132,43.4451
0.40,-0.0249,-9.8349,4.9900,4.7165,2.0030,1.2143,43.3857
0.40,-0.0249,-9.8349,4.9900,4.7066,2.0080,1.2153,43.3261
0.40,-0.0249,-9.8349,4.9900,4.6968,2.0130,1.2164,43.2664
0.40,-0.0249,-9.8349,4.9899,4.6870,2.0180,1.2174,43.2066
0.40,-0.0249,-9.8349,4.9899,4.6771,2.0230,1.2184,43.1467
0.41,-0.0249,-9.8349,4.9899,4.6673,2.0279,1.2194,43.0867
0.41,-0.0249,-9.8349,4.9899,4.6575,2.0329,1.2204,43.0265
0.41,-0.0249,-9.8349,4.9898,4.6476,2.0379,1.2214,42.9663
0.41,-0.0249,-9.8349,4.9898,4.6378,2.0429,1.2224,42.9059
0.41,-0.0249,-9.8349,4.9898,4.6279,2.0479,1.2234,42.8454
0.41,-0.0249,-9.8349,4.9898,4.6181,2.0529,1.2243,42.7848
0.41,-0.0249,-9.8349,4.9897,4.6083,2.0579,1.2253,42.7240
0.41,-0.0249,-9.8349,4.9897,4.5984,2.0629,1.2262,42.6632
0.41,-0.0249,-9.8349,4.9897,4.5886,2.0679,1.2272,42.6022
0.42,-0.0249,-9.8349,4.9897,4.5788,2.0729,1.2281,42.5411
0.42,-0.0249,-9.8349,4.9896,4.5689,2.0778,1.2290,42.4798
0.42,-0.0249,-9.8349,4.9896,4.5591,2.0828,1.2299,42.4185
0.42,-0.0249,-9.8349,4.9896,4.5493,2.0878,1.2308,42.3570
0.42,-0.0249,-9.8349,4.9896,4.5394,2.0928,1.2317,42.2954
0.42,-0.0249,-9.8349,4.9895,4.5296,2.0978,1.2326,42.2337
0.42,-0.0249,-9.8349,4.9895,4.5198,2.1028,1.2334,42.1719
0.42,-0.0249,-9.8349,4.9895,4.5099,2.1078,1.2343,42.1100
0.42,-0.0249,-9.8349,4.9895,4.5001,2.1128,1.2351,42.0479
0.42,-0.0249,-9.8349,4.9894,4.4903,2.1178,1.2360,41.9857
0.42,-0.0249,-9.8349,4.9894,4.4804,2.1228,1.2368,41.9234
0.43,-0.0249,-9.8349,4.9894,4.4706,2.1277,1.2376,41.8609
0.43,-0.0249,-9.8349,4.9894,4.4608,2.1327,1.2384,41.7984
0.43,-0.0249,-9.8349,4.9893,4.4509,2.1377,1.2392,41.7357
0.43,-0.0249,-9.8349,4.9893,4.4411,2.1427,1.2400,41.6729
0.43,-0.0249,-9.8349,4.9893,4.4312,2.1477,1.2408,41.6099
0.43,-0.0249,-9.8349,4.9893,4.4214,2.1527,1.2415,41.5469
0.43,-0.0249,-9.8349,4.9892,4.4116,2.1577,1.2423,41.4837
0.43,-0.0249,-9.8349,4.9892,4.4017,2.1627,1.2430,41.4204
0.43,-0.0249,-9.8349,4.9892,4.3919,2.1677,1.2438,41.3570
0.44,-0.0249,-9.8349,4.9892,4.3821,2.1726,1.2445,41.2934
0.44,-0.0249,-9.8349,4.9891,4.3722,2.1776,1.2452,41.2297
0.44,-0.0249,-9.8349,4.9891,4.3624,2.1826,1.2459,41.1659
0.44,-0.0249,-9.8349,4.9891,4.3526,2.1876,1.2466,41.1020
0.44,-0.0249,-9.8349,4.9891,4.3427,2.1926,1.2473,41.0379
0.44,-0.0249,-9.8349,4.9890,4.3329,2.1976,1.2480,40.9738
0.44,-0.0249,-9.8349,4.9890,4.3231,2.2026,1.2487,40.9094
0.44,-0.0249,-9.8349,4.9890,4.3132,2.2076,1.2493,40.8450
0.44,-0.0249,-9.8349,4.9890,4.3034,2.2126,1.2500,40.7805
0.44,-0.0249,-9.8349,4.9889,4.2936,2.2175,1.2506,40.7158
0.44,-0.0249,-9.8349,4.9889,4.2837,2.2225,1.2512,40.6510
0.45,-0.0249,-9.8349,4.9889,4.2739,2.2275,1.2518,40.5860
0.45,-0.0249,-9.8349,4.9889,4.2641,2.2325,1.2525,40.5210
0.45,-0.0249,-9.8349,4.9888,4.2542,2.2375,1.2530,40.4558
0.45,-0.0249,-9.8349,4.9888,4.2444,2.2425,1.2536,40.3904
0.45,-0.0249,-9.8349,4.9888,4.2346,2.2475,1.2542,40.3250
0.45,-0.0249,-9.8349,4.9888,4.2247,2.2525,1.2548,40.2594
0.45,-0.0249,-9.8349,4.9888,4.2149,2.2575,1.2553,40.1937
0.45,-0.0249,-9.8349,4.9887,4.2050,2.2624,1.2559,40.1279
0.45,-0.0249,-9.8349,4.9887,4.1952,2.2674,1.2564,40.0619
0.46,-0.0249,-9.8349,4.9887,4.1854,2.2724,1.2570,39.9958
0.46,-0.0249,-9.8349,4.9887,4.1755,2.2774,1.2575,39.9296
0.46,-0.0249,-9.8349,4.9886,4.1657,2.2824,1.2580,39.8633
0.46,-0.0249,-9.8349,4.9886,4.1559,2.2874,1.2585,39.7968
0.46,-0.0249,-9.8349,4.9886,4.1460,2.2924,1.2590,39.7302
0.46,-0.0249,-9.8349,4.9886,4.1362,2.2974,1.2595,39.6635
0.46,-0.0249,-9.8349,4.9885,4.1264,2.3024,1.2599,39.5966
0.46,-0.0249,-9.8349,4.9885,4.1165,2.3073,1.2604,39.5296
0.46,-0.0249,-9.8349,4.9885,4.1067,2.3123,1.2609,39.4625
0.46,-0.0249,-9.8349,4.9885,4.0969,2.3173,1.2613,39.3952
0.46,-0.0249,-9.8349,4.9884,4.0870,2.3223,1.2617,39.3279
0.47,-0.0249,-9.8349,4.9884,4.0772,2.3273,1.2621,39.2603
0.47,-0.0249,-9.8349,4.9884,4.0674,2.3323,1.2626,39.1927
0.47,-0.0249,-9.8349,4.9884,4.0575,2.3373,1.2630,39.1249
0.47,-0.0249,-9.8349,4.9883,4.0477,2.3423,1.2634,39.0570
0.47,-0.0249,-9.8349,4.9883,4.0379,2.3473,1.2637,38.9890
0.47,-0.0249,-9.8349,4.9883,4.0280,2.3522,1.2641,38.9208
0.47,-0.0249,-9.8349,4.9883,4.0182,2.3572,1.2645,38.8525
0.47,-0.0249,-9.8349,4.9882,4.0084,2.3622,1.2648,38.7841
0.47,-0.0249,-9.8349,4.9882,3.9985,2.3672,1.2652,38.7155
0.48,-0.0249,-9.8349,4.9882,3.9887,2.3722,1.2655,38.6468
0.48,-0.0249,-9.8349,4.9882,3.9789,2.3772,1.2658,38.5779
0.48,-0.0249,-9.8349,4.9881,3.9690,2.3822,1.2661,38.5090
0.48,-0.0249,-9.8349,4.9881,3.9592,2.3872,1.2664,38.4399
0.48,-0.0249,-9.8349,4.9881,3.9493,2.3921,1.2667,38.3706
0.48,-0.0249,-9.8349,4.9881,3.9395,2.3971,1.2670,38.3013
0.48,-0.0249,-9.8349,4.9880,3.9297,2.4021,1.2673,38.2318
0.48,-0.0249,-9.8349,4.9880,3.9198,2.4071,1.2676,38.1621
0.48,-0.0249,-9.8349,4.9880,3.9100,2.4121,1.2678,38.0924
0.48,-0.0249,-9.8349,4.9880,3.9002,2.4171,1.2681,38.0225
0.48,-0.0249,-9.8349,4.9879,3.8903,2.4221,1.2683,37.9524
0.49,-0.0249,-9.8349,4.9879,3.8805,2.4271,1.2685,37.8823
0.49,-0.0249,-9.8349,4.9879,3.8707,2.4320,1.2687,37.8120
0.49,-0.0249,-9.8349,4.9879,3.8608,2.4370,1.2689,37.7415
0.49,-0.0249,-9.8349,4.9878,3.8510,2.4420,1.2691,37.6709
0.49,-0.0249,-9.8349,4.9878,3.8412,2.4470,1.2693,37.6002
0.49,-0.0249,-9.8349,4.9878,3.8313,2.4520,1.2695,37.5294
0.49,-0.0249,-9.8349,4.9878,3.8215,2.4570,1.2697,37.4584
0.49,-0.0249,-9.8349,4.9877,3.8117,2.4620,1.2698,37.3873
0.49,-0.0249,-9.8349,4.9877,3.8018,2.4670,1.2700,37.3160
0.50,-0.0249,-9.8349,4.9877,3.7920,2.4720,1.2701,37.2447
0.50,-0.0249,-9.8349,4.9877,3.7822,2.4769,1.2702,37.1731
0.50,-0.0249,-9.8349,4.9876,3.7723,2.4819,1.2703,37.1015
0.50,-0.0249,-9.8349,4.9876,3.7625,2.4869,1.2705,37.0297
0.50,-0.0249,-9.8349,4.9876,3.7527,2.4919,1.2706,36.9577
0.50,-0.0249,-9.8349,4.9876,3.7428,2.4969,1.2706,36.8857
0.50,-0.0249,-9.8349,4.9875,3.7330,2.5019,1.2707,36.8135
0.50,-0.0249,-9.8349,4.9875,3.7231,2.5069,1.2708,36.7411
0.50,-0.0249,-9.8349,4.9875,3.7133,2.5119,1.2708,36.6686
0.50,-0.0249,-9.8349,4.9875,3.7035,2.5168,1.2709,36.5960
0.50,-0.0249,-9.8349,4.9874,3.6936,2.5218,1.2709,36.5232
0.51,-0.0249,-9.8349,4.9874,3.6838,2.5268,1.2710,36.4503
0.51,-0.0249,-9.8349,4.9874,3.6740,2.5318,1.2710,36.3773
0.51,-0.0249,-9.8349,4.9874,3.6641,2.5368,1.2710,36.3041
0.51,-0.0249,-9.8349,4.9873,3.6543,2.5418,1.2710,36.2308
0.51,-0.0249,-9.8349,4.9873,3.6445,2.5468,1.2710,36.1574
0.51,-0.0249,-9.8349,4.9873,3.6346,2.5518,1.2710,36.0838
0.51,-0.0249,-9.8349,4.9873,3.6248,2.5567,1.2709,36.0101
0.51,-0.0249,-9.8349,4.9872,3.6150,2.5617,1.2709,35.9362
0.51,-0.0249,-9.8349,4.9872,3.6051,2.5667,1.2708,35.8622
0.52,-0.0249,-9.8349,4.9872,3.5953,2.5717,1.2708,35.7881
0.52,-0.0249,-9.8349,4.9872,3.5855,2.5767,1.2707,35.7138
0.52,-0.0249,-9.8349,4.9871,3.5756,2.5817,1.2706,35.6393
0.52,-0.0249,-9.8349,4.9871,3.5658,2.5867,1.2705,35.5648
0.52,-0.0249,-9.8349,4.9871,3.5560,2.5917,1.2704,35.4901
0.52,-0.0249,-9.8349,4.9871,3.5461,2.5966,1.2703,35.4152
0.52,-0.0249,-9.8349,4.9870,3.5363,2.6016,1.2702,35.3403
0.52,-0.0249,-9.8349,4.9870,3.5265,2.6066,1.2701,35.2651
0.52,-0.0249,-9.8349,4.9870,3.5166,2.6116,1.2699,35.1899
0.52,-0.0249,-9.8349,4.9870,3.5068,2.6166,1.2698,35.1145
0.52,-0.0249,-9.8349,4.9869,3.4969,2.6216,1.2696,35.0389
0.53,-0.0249,-9.8349,4.9869,3.4871,2.6266,1.2695,34.9632
0.53,-0.0249,-9.8349,4.9869,3.4773,2.6315,1.2693,34.8874
0.53,-0.0249,-9.8349,4.9869,3.4674,2.6365,1.2691,34.8115
0.53,-0.0249,-9.8349,4.9868,3.4576,2.6415,1.2689,34.7353
0.53,-0.0249,-9.8349,4.9868,3.4478,2.6465,1.2687,34.6591
0.53,-0.0249,-9.8349,4.9868,3.4379,2.6515,1.2685,34.5827
0.53,-0.0249,-9.8349,4.9868,3.4281,2.6565,1.2682,34.5062
0.53,-0.0249,-9.8349,4.9867,3.4183,2.6615,1.2680,34.4295
0.53,-0.0249,-9.8349,4.9867,3.4084,2.6665,1.2678,34.3527
0.54,-0.0249,-9.8349,4.9867,3.3986,2.6714,1.2675,34.2757
0.54,-0.0249,-9.8349,4.9867,3.3888,2.6764,1.2672,34.1986
0.54,-0.0249,-9.8349,4.9866,3.3789,2.6814,1.2670,34.1214
0.54,-0.0249,-9.8349,4.9866,3.3691,2.6864,1.2667,34.0440
0.54,-0.0249,-9.8349,4.9866,3.3593,2.6914,1.2664,33.9665
0.54,-0.0249,-9.8349,4.9866,3.3494,2.6964,1.2661,33.8888
0.54,-0.0249,-9.8349,4.9865,3.3396,2.7014,1.2658,33.8110
0.54,-0.0249,-9.8349,4.9865,3.3298,2.7063,1.2654,33.7331
0.54,-0.0249,-9.8349,4.9865,3.3199,2.7113,1.2651,33.6550
0.54,-0.0249,-9.8349,4.9865,3.3101,2.7163,1.2648,33.5767
0.55,-0.0249,-9.8349,4.9864,3.3003,2.7213,1.2644,33.4984
0.55,-0.0249,-9.8349,4.9864,3.2904,2.7263,1.2640,33.4198
0.55,-0.0249,-9.8349,4.9864,3.2806,2.7313,1.2637,33.3412
0.55,-0.0249,-9.8349,4.9864,3.2707,2.7363,1.2633,33.2624
0.55,-0.0249,-9.8349,4.9863,3.2609,2.7413,1.2629,33.1834
0.55,-0.0249,-9.8349,4.9863,3.2511,2.7462,1.2625,33.1043
0.55,-0.0249,-9.8349,4.9863,3.2412,2.7512,1.2621,33.0251
0.55,-0.0249,-9.8349,4.9863,3.2314,2.7562,1.2616,32.9457
0.55,-0.0249,-9.8349,4.9863,3.2216,2.7612,1.2612,32.8662
0.55,-0.0249,-9.8349,4.9862,3.2117,2.7662,1.2608,32.7865
0.56,-0.0249,-9.8349,4.9862,3.2019,2.7712,1.2603,32.7067
0.56,-0.0249,-9.8349,4.9862,3.1921,2.7762,1.2598,32.6267
0.56,-0.0249,-9.8349,4.9862,3.1822,2.7811,1.2594,32.5466
0.56,-0.0249,-9.8349,4.9861,3.1724,2.7861,1.2589,32.4664
0.56,-0.0249,-9.8349,4.9861,3.1626,2.7911,1.2584,32.3860
0.56,-0.0249,-9.8349,4.9861,3.1527,2.7961,1.2579,32.3055
0.56,-0.0249,-9.8349,4.9861,3.1429,2.8011,1.2574,32.2248
0.56,-0.0249,-9.8349,4.9860,3.1331,2.8061,1.2569,32.1440
0.56,-0.0249,-9.8349,4.9860,3.1232,2.8111,1.2563,32.0630
0.56,-0.0249,-9.8349,4.9860,3.1134,2.8160,1.2558,31.9819
0.57,-0.0249,-9.8349,4.9860,3.1036,2.8210,1.2552,31.9006
0.57,-0.0249,-9.8349,4.9859,3.0937,2.8260,1.2547,31.8192
0.57,-0.0249,-9.8349,4.9859,3.0839,2.8310,1.2541,31.7377
0.57,-0.0249,-9.8349,4.9859,3.0741,2.8360,1.2535,31.6560
0.57,-0.0249,-9.8349,4.9859,3.0642,2.8410,1.2529,31.5742
0.57,-0.0249,-9.8349,4.9858,3.0544,2.8460,1.2523,31.4922
0.57,-0.0249,-9.8349,4.9858,3.0445,2.8509,1.2517,31.4101
0.57,-0.0249,-9.8349,4.9858,3.0347,2.8559,1.2511,31.3278
0.57,-0.0249,-9.8349,4.9858,3.0249,2.8609,1.2505,31.2454
0.57,-0.0249,-9.8349,4.9857,3.0150,2.8659,1.2498,31.1628
0.58,-0.0249,-9.8349,4.9857,3.0052,2.8709,1.2492,31.0801
0.58,-0.0249,-9.8349,4.9857,2.9954,2.8759,1.2485,30.9973
0.58,-0.0249,-9.8349,4.9857,2.9855,2.8809,1.2478,30.9143
0.58,-0.0249,-9.8349,4.9856,2.9757,2.8858,1.2472,30.8311
0.58,-0.0249,-9.8349,4.9856,2.9659,2.8908,1.2465,30.7479
0.58,-0.0249,-9.8349,4.9856,2.9560,2.8958,1.2458,30.6644
0.58,-0.0249,-9.8349,4.9856,2.9462,2.9008,1.2451,30.5809
0.58,-0.0249,-9.8349,4.9855,2.9364,2.9058,1.2443,30.4971
0.58,-0.0249,-9.8349,4.9855,2.9265,2.9108,1.2436,30.4133
0.58,-0.0249,-9.8349,4.9855,2.9167,2.9158,1.2429,30.3293
0.58,-0.0249,-9.8349,4.9855,2.9069,2.9207,1.2421,30.2451
0.59,-0.0249,-9.8349,4.9854,2.8970,2.9257,1.2414,30.1608
0.59,-0.0249,-9.8349,4.9854,2.8872,2.9307,1.2406,30.0764
0.59,-0.0249,-9.8349,4.9854,2.8774,2.9357,1.2398,29.9918
0.59,-0.0249,-9.8349,4.9854,2.8675,2.9407,1.2390,29.9070
0.59,-0.0249,-9.8349,4.9853,2.8577,2.9457,1.2382,29.8222
0.59,-0.0249,-9.8349,4.9853,2.8479,2.9507,1.2374,29.7371
0.59,-0.0249,-9.8349,4.9853,2.8380,2.9556,1.2366,29.6520
0.59,-0.0249,-9.8349,4.9853,2.8282,2.9606,1.2358,29.5667
0.59,-0.0249,-9.8349,4.9852,2.8184,2.9656,1.2350,29.4812
0.60,-0.0249,-9.8349,4.9852,2.8085,2.9706,1.2341,29.3956
0.60,-0.0249,-9.8349,4.9852,2.7987,2.9756,1.2333,29.3098
0.60,-0.0249,-9.8349,4.9852,2.7888,2.9806,1.2324,29.2239
0.60,-0.0249,-9.8349,4.9851,2.7790,2.9856,1.2315,29.1379
0.60,-0.0249,-9.8349,4.9851,2.7692,2.9905,1.2306,29.0517
0.60,-0.0249,-9.8349,4.9851,2.7593,2.9955,1.2297,28.9654
0.60,-0.0249,-9.8349,4.9851,2.7495,3.0005,1.2288,28.8789
0.60,-0.0249,-9.8349,4.9850,2.7397,3.0055,1.2279,28.7923
0.60,-0.0249,-9.8349,4.9850,2.7298,3.0105,1.2270,28.7055
0.60,-0.0249,-9.8349,4.9850,2.7200,3.0155,1.2260,28.6186
0.60,-0.0249,-9.8349,4.9850,2.7102,3.0205,1.2251,28.5315
0.61,-0.0248,-9.8348,4.9849,2.7003,3.0254,1.2241,28.4443
0.61,-0.0248,-9.8348,4.9849,2.6905,3.0304,1.2232,28.3570
0.61,-0.0248,-9.8348,4.9849,2.6807,3.0354,1.2222,28.2695
0.61,-0.0248,-9.8348,4.9849,2.6708,3.0404,1.2212,28.1819
0.61,-0.0248,-9.8348,4.9848,2.6610,3.0454,1.2202,28.0941
0.61,-0.0248,-9.8348,4.9848,2.6512,3.0504,1.2192,28.0062
0.61,-0.0248,-9.8348,4.9848,2.6413,3.0553,1.2182,27.9181
0.61,-0.0248,-9.8348,4.9848,2.6315,3.0603,1.2172,27.8299
0.61,-0.0248,-9.8348,4.9847,2.6217,3.0653,1.2162,27.7415
0.62,-0.0248,-9.8348,4.9847,2.6118,3.0703,1.2151,27.6530
0.62,-0.0248,-9.8348,4.9847,2.6020,3.0753,1.2141,27.5644
0.62,-0.0248,-9.8348,4.9847,2.5922,3.0803,1.2130,27.4756
0.62,-0.0248,-9.8348,4.9846,2.5823,3.0853,1.2119,27.3866
0.62,-0.0248,-9.8348,4.9846,2.5725,3.0902,1.2108,27.2975
0.62,-0.0248,-9.8348,4.9846,2.5626,3.0952,1.2097,27.2083
0.62,-0.0248,-9.8348,4.9846,2.5528,3.1002,1.2086,27.1190
0.62,-0.0248,-9.8348,4.9845,2.5430,3.1052,1.2075,27.0294
0.62,-0.0248,-9.8348,4.9845,2.5331,3.1102,1.2064,26.9398
0.62,-0.0248,-9.8348,4.9845,2.5233,3.1152,1.2053,26.8500
0.62,-0.0248,-9.8348,4.9845,2.5135,3.1201,1.2041,26.7600
0.63,-0.0248,-9.8348,4.9844,2.5036,3.1251,1.2030,26.6700
0.63,-0.0248,-9.8348,4.9844,2.4938,3.1301,1.2018,26.5797
0.63,-0.0248,-9.8348,4.9844,2.4840,3.1351,1.2006,26.4893
0.63,-0.0248,-9.8348,4.9844,2.4741,3.1401,1.1995,26.3988
0.63,-0.0248,-9.8348,4.9843,2.4643,3.1451,1.1983,26.3082
0.63,-0.0248,-9.8348,4.9843,2.4545,3.1501,1.1971,26.2174
0.63,-0.0248,-9.8348,4.9843,2.4446,3.1550,1.1959,26.1264
0.63,-0.0248,-9.8348,4.9843,2.4348,3.1600,1.1946,26.0353
0.63,-0.0248,-9.8348,4.9842,2.4250,3.1650,1.1934,25.9441
0.64,-0.0248,-9.8348,4.9842,2.4151,3.1700,1.1922,25.8527
0.64,-0.0248,-9.8348,4.9842,2.4053,3.1750,1.1909,25.7612
0.64,-0.0248,-9.8348,4.9842,2.3955,3.1800,1.1897,25.6695
0.64,-0.0248,-9.8348,4.9842,2.3856,3.1849,1.1884,25.5777
0.64,-0.0248,-9.8348,4.9841,2.3758,3.1899,1.1871,25.4858
0.64,-0.0248,-9.8348,4.9841,2.3660,3.1949,1.1858,25.3937
0.64,-0.0248,-9.8348,4.9841,2.3561,3.1999,1.1845,25.3015
0.64,-0.0248,-9.8348,4.9841,2.3463,3.2049,1.1832,25.2091
0.64,-0.0248,-9.8348,4.9840,2.3365,3.2099,1.1819,25.1166
0.64,-0.0248,-9.8348,4.9840,2.3266,3.2148,1.1806,25.0240
0.64,-0.0248,-9.8348,4.9840,2.3168,3.2198,1.1792,24.9312
0.65,-0.0248,-9.8348,4.9840,2.3069,3.2248,1.1779,24.8382
0.65,-0.0248,-9.8348,4.9839,2.2971,3.2298,1.1765,24.7452
0.65,-0.0248,-9.8348,4.9839,2.2873,3.2348,1.1752,24.6520
0.65,-0.0248,-9.8348,4.9839,2.2774,3.2398,1.1738,24.5586
0.65,-0.0248,-9.8348,4.9839,2.2676,3.2448,1.1724,24.4651
0.65,-0.0248,-9.8348,4.9838,2.2578,3.2497,1.1710,24.3715
0.65,-0.0248,-9.8348,4.9838,2.2479,3.2547,1.1696,24.2777
0.65,-0.0248,-9.8348,4.9838,2.2381,3.2597,1.1682,24.1838
0.65,-0.0248,-9.8348,4.9838,2.2283,3.2647,1.1667,24.0897
0.66,-0.0248,-9.8348,4.9837,2.2184,3.2697,1.1653,23.9955
0.66,-0.0248,-9.8348,4.9837,2.2086,3.2747,1.1639,23.9012
0.66,-0.0248,-9.8348,4.9837,2.1988,3.2796,1.1624,23.8067
0.66,-0.0248,-9.8348,4.9837,2.1889,3.2846,1.1609,23.7121
0.66,-0.0248,-9.8348,4.9836,2.1791,3.2896,1.1595,23.6174
0.66,-0.0248,-9.8348,4.9836,2.1693,3.2946,1.1580,23.5225
0.66,-0.0248,-9.8348,4.9836,2.1594,3.2996,1.1565,23.4275
0.66,-0.0248,-9.8348,4.9836,2.1496,3.3046,1.1550,23.3323
0.66,-0.0248,-9.8348,4.9835,2.1398,3.3095,1.1535,23.2370
0.66,-0.0248,-9.8348,4.9835,2.1299,3.3145,1.1519,23.1416
0.66,-0.0248,-9.8348,4.9835,2.1201,3.3195,1.1504,23.0460
0.67,-0.0248,-9.8348,4.9835,2.1103,3.3245,1.1488,22.9503
0.67,-0.0248,-9.8348,4.9834,2.1004,3.3295,1.1473,22.8545
0.67,-0.0248,-9.8348,4.9834,2.0906,3.3345,1.1457,22.7585
0.67,-0.0248,-9.8348,4.9834,2.0807,3.3394,1.1442,22.6624
0.67,-0.0248,-9.8348,4.9834,2.0709,3.3444,1.1426,22.5661
0.67,-0.0248,-9.8348,4.9833,2.0611,3.3494,1.1410,22.4697
0.67,-0.0248,-9.8348,4.9833,2.0512,3.3544,1.1394,22.3732
0.67,-0.0248,-9.8348,4.9833,2.0414,3.3594,1.1378,22.2765
0.67,-0.0248,-9.8348,4.9833,2.0316,3.3644,1.1361,22.1797
0.68,-0.0248,-9.8348,4.9832,2.0217,3.3693,1.1345,22.0828
0.68,-0.0248,-9.8348,4.9832,2.0119,3.3743,1.1329,21.9857
0.68,-0.0248,-9.8348,4.9832,2.0021,3.3793,1.1312,21.8886
0.68,-0.0248,-9.8348,4.9832,1.9922,3.3843,1.1295,21.7912
0.68,-0.0248,-9.8348,4.9831,1.9824,3.3893,1.1279,21.6938
0.68,-0.0248,-9.8348,4.9831,1.9726,3.3943,1.1262,21.5962
0.68,-0.0248,-9.8348,4.9831,1.9627,3.3992,1.1245,21.4984
0.68,-0.0248,-9.8348,4.9831,1.9529,3.4042,1.1228,21.4006
0.68,-0.0248,-9.8348,4.9830,1.9431,3.4092,1.1211,21.3026
0.68,-0.0248,-9.8348,4.9830,1.9332,3.4142,1.1194,21.2045
0.68,-0.0248,-9.8348,4.9830,1.9234,3.4192,1.1176,21.1062
0.69,-0.0248,-9.8348,4.9830,1.9136,3.4242,1.1159,21.0078
0.69,-0.0248,-9.8348,4.9829,1.9037,3.4291,1.1141,20.9093
0.69,-0.0248,-9.8348,4.9829,1.8939,3.4341,1.1124,20.8106
0.69,-0.0248,-9.8348,4.9829,1.8841,3.4391,1.1106,20.7119
0.69,-0.0248,-9.8348,4.9829,1.8742,3.4441,1.1088,20.6129
0.69,-0.0248,-9.8348,4.9828,1.8644,3.4491,1.1070,20.5139
0.69,-0.0248,-9.8348,4.9828,1.8546,3.4541,1.1052,20.4147
0.69,-0.0248,-9.8348,4.9828,1.8447,3.4590,1.1034,20.3154
0.69,-0.0248,-9.8348,4.9828,1.8349,3.4640,1.1016,20.2160
0.70,-0.0248,-9.8348,4.9827,1.8250,3.4690,1.0998,20.1165
0.70,-0.0248,-9.8348,4.9827,1.8152,3.4740,1.0979,20.0168
0.70,-0.0248,-9.8348,4.9827,1.8054,3.4790,1.0961,19.9170
0.70,-0.0248,-9.8348,4.9827,1.7955,3.4840,1.0942,19.8170
0.70,-0.0248,-9.8348,4.9826,1.7857,3.4889,1.0923,19.7170
0.70,-0.0248,-9.8348,4.9826,1.7759,3.4939,1.0905,19.6168
0.70,-0.0248,-9.8348,4.9826,1.7660,3.4989,1.0886,19.5165
0.70,-0.0248,-9.8348,4.9826,1.7562,3.5039,1.0867,19.4160
0.70,-0.0248,-9.8348,4.9825,1.7464,3.5089,1.0848,19.3154
0.70,-0.0248,-9.8348,4.9825,1.7365,3.5138,1.0829,19.2148
0.70,-0.0248,-9.8348,4.9825,1.7267,3.5188,1.0809,19.1139
0.71,-0.0248,-9.8348,4.9825,1.7169,3.5238,1.0790,19.0130
0.71,-0.0248,-9.8348,4.9824,1.7070,3.5288,1.0770,18.9119
0.71,-0.0248,-9.8348,4.9824,1.6972,3.5338,1.0751,18.8107
0.71,-0.0248,-9.8348,4.9824,1.6874,3.5388,1.0731,18.7094
0.71,-0.0248,-9.8348,4.9824,1.6775,3.5437,1.0711,18.6080
0.71,-0.0248,-9.8348,4.9824,1.6677,3.5487,1.0691,18.5064
0.71,-0.0248,-9.8348,4.9823,1.6579,3.5537,1.0671,18.4048
0.71,-0.0248,-9.8348,4.9823,1.6480,3.5587,1.0651,18.3030
0.71,-0.0248,-9.8348,4.9823,1.6382,3.5637,1.0631,18.2010
0.72,-0.0248,-9.8348,4.9823,1.6284,3.5687,1.0611,18.0990
0.72,-0.0248,-9.8348,4.9822,1.6185,3.5736,1.0591,17.9969
0.72,-0.0248,-9.8348,4.9822,1.6087,3.5786,1.0570,17.8946
0.72,-0.0248,-9.8348,4.9822,1.5989,3.5836,1.0550,17.7922
0.72,-0.0248,-9.8348,4.9822,1.5890,3.5886,1.0529,17.6897
0.72,-0.0248,-9.8348,4.9821,1.5792,3.5936,1.0508,17.5870
0.72,-0.0248,-9.8348,4.9821,1.5693,3.5985,1.0487,17.4843
0.72,-0.0248,-9.8348,4.9821,1.5595,3.6035,1.0466,17.3814
0.72,-0.0248,-9.8348,4.9821,1.5497,3.6085,1.0445,17.2784
0.72,-0.0248,-9.8348,4.9820,1.5398,3.6135,1.0424,17.1753
0.72,-0.0248,-9.8348,4.9820,1.5300,3.6185,1.0403,17.0721
0.73,-0.0248,-9.8348,4.9820,1.5202,3.6235,1.0382,16.9688
0.73,-0.0248,-9.8348,4.9820,1.5103,3.6284,1.0360,16.8653
0.73,-0.0248,-9.8348,4.9819,1.5005,3.6334,1.0339,16.7617
0.73,-0.0248,-9.8348,4.9819,1.4907,3.6384,1.0317,16.6581
0.73,-0.0248,-9.8348,4.9819,1.4808,3.6434,1.0295,16.5543
0.73,-0.0248,-9.8348,4.9819,1.4710,3.6484,1.0273,16.4504
0.73,-0.0248,-9.8348,4.9818,1.4612,3.6534,1.0251,16.3464
0.73,-0.0248,-9.8348,4.9818,1.4513,3.6583,1.0229,16.2422
0.73,-0.0248,-9.8348,4.9818,1.4415,3.6633,1.0207,16.1380
0.74,-0.0248,-9.8348,4.9818,1.4317,3.6683,1.0185,16.0336
0.74,-0.0248,-9.8348,4.9817,1.4218,3.6733,1.0163,15.9292
0.74,-0.0248,-9.8348,4.9817,1.4120,3.6783,1.0140,15.8246
0.74,-0.0248,-9.8348,4.9817,1.4022,3.6832,1.0118,15.7199
0.74,-0.0248,-9.8348,4.9817,1.3923,3.6882,1.0095,15.6151
0.74,-0.0248,-9.8348,4.9816,1.3825,3.6932,1.0072,15.5102
0.74,-0.0248,-9.8348,4.9816,1.3727,3.6982,1.0049,15.4052
0.74,-0.0248,-9.8348,4.9816,1.3628,3.7032,1.0027,15.3001
0.74,-0.0248,-9.8348,4.9816,1.3530,3.7082,1.0003,15.1949
0.74,-0.0248,-9.8348,4.9815,1.3432,3.7131,0.9980,15.0896
0.74,-0.0248,-9.8348,4.9815,1.3333,3.7181,0.9957,14.9842
0.75,-0.0248,-9.8348,4.9815,1.3235,3.7231,0.9934,14.8786
0.75,-0.0248,-9.8348,4.9815,1.3136,3.7281,0.9910,14.7730
0.75,-0.0248,-9.8348,4.9814,1.3038,3.7331,0.9887,14.6672
0.75,-0.0248,-9.8348,4.9814,1.2940,3.7380,0.9863,14.5614
0.75,-0.0248,-9.8348,4.9814,1.2841,3.7430,0.9840,14.4554
0.75,-0.0248,-9.8348,4.9814,1.2743,3.7480,0.9816,14.3494
0.75,-0.0248,-9.8348,4.9813,1.2645,3.7530,0.9792,14.2432
0.75,-0.0248,-9.8348,4.9813,1.2546,3.7580,0.9768,14.1370
0.75,-0.0248,-9.8348,4.9813,1.2448,3.7629,0.9744,14.0306
0.76,-0.0248,-9.8348,4.9813,1.2350,3.7679,0.9720,13.9242
0.76,-0.0248,-9.8348,4.9812,1.2251,3.7729,0.9695,13.8176
0.76,-0.0248,-9.8348,4.9812,1.2153,3.7779,0.9671,13.7110
0.76,-0.0248,-9.8348,4.9812,1.2055,3.7829,0.9646,13.6042
0.76,-0.0248,-9.8348,4.9812,1.1956,3.7879,0.9622,13.4974
0.76,-0.0248,-9.8348,4.9811,1.1858,3.7928,0.9597,13.3904
0.76,-0.0248,-9.8348,4.9811,1.1760,3.7978,0.9572,13.2834
0.76,-0.0248,-9.8348,4.9811,1.1661,3.8028,0.9547,13.1763
0.76,-0.0248,-9.8348,4.9811,1.1563,3.8078,0.9522,13.0690
0.76,-0.0248,-9.8348,4.9810,1.1465,3.8128,0.9497,12.9617
0.76,-0.0248,-9.8348,4.9810,1.1366,3.8177,0.9472,12.8543
0.77,-0.0248,-9.8348,4.9810,1.1268,3.8227,0.9447,12.7468
0.77,-0.0248,-9.8348,4.9810,1.1170,3.8277,0.9421,12.6392
0.77,-0.0248,-9.8348,4.9809,1.1071,3.8327,0.9396,12.5315
0.77,-0.0248,-9.8348,4.9809,1.0973,3.8377,0.9370,12.4237
0.77,-0.0248,-9.8348,4.9809,1.0875,3.8426,0.9345,12.3158
0.77,-0.0248,-9.8348,4.9809,1.0776,3.8476,0.9319,12.2078
0.77,-0.0248,-9.8348,4.9808,1.0678,3.8526,0.9293,12.0998
0.77,-0.0248,-9.8348,4.9808,1.0579,3.8576,0.9267,11.9916
0.77,-0.0248,-9.8348,4.9808,1.0481,3.8626,0.9241,11.8834
0.78,-0.0248,-9.8348,4.9808,1.0383,3.8675,0.9215,11.7751
0.78,-0.0248,-9.8348,4.9807,1.0284,3.8725,0.9189,11.6667
0.78,-0.0248,-9.8348,4.9807,1.0186,3.8775,0.9162,11.5582
0.78,-0.0248,-9.8348,4.9807,1.0088,3.8825,0.9136,11.4496
0.78,-0.0248,-9.8348,4.9807,0.9989,3.8875,0.9109,11.3409
0.78,-0.0248,-9.8348,4.9807,0.9891,3.8925,0.9083,11.2322
0.78,-0.0248,-9.8348,4.9806,0.9793,3.8974,0.9056,11.1234
0.78,-0.0248,-9.8348,4.9806,0.9694,3.9024,0.9029,11.0145
0.78,-0.0248,-9.8348,4.9806,0.9596,3.9074,0.9002,10.9055
0.78,-0.0248,-9.8348,4.9806,0.9498,3.9124,0.8975,10.7964
0.78,-0.0248,-9.8348,4.9805,0.9399,3.9174,0.8948,10.6872
0.79,-0.0248,-9.8348,4.9805,0.9301,3.9223,0.8920,10.5780
0.79,-0.0248,-9.8348,4.9805,0.9203,3.9273,0.8893,10.4687
0.79,-0.0248,-9.8348,4.9805,0.9104,3.9323,0.8866,10.3593
0.79,-0.0248,-9.8348,4.9804,0.9006,3.9373,0.8838,10.2498
0.79,-0.0248,-9.8348,4.9804,0.8908,3.9423,0.8810,10.1403
0.79,-0.0248,-9.8348,4.9804,0.8809,3.9472,0.8783,10.0307
0.79,-0.0248,-9.8348,4.9804,0.8711,3.9522,0.8755,9.9210
0.79,-0.0248,-9.8348,4.9803,0.8613,3.9572,0.8727,9.8112
0.79,-0.0248,-9.8348,4.9803,0.8514,3.9622,0.8699,9.7013
0.80,-0.0248,-9.8348,4.9803,0.8416,3.9672,0.8671,9.5914
0.80,-0.0248,-9.8348,4.9803,0.8318,3.9721,0.8643,9.4814
0.80,-0.0248,-9.8348,4.9802,0.8219,3.9771,0.8614,9.3714
0.80,-0.0248,-9.8348,4.9802,0.8121,3.9821,0.8586,9.2612
0.80,-0.0248,-9.8348,4.9802,0.8022,3.9871,0.8557,9.1510
0.80,-0.0248,-9.8348,4.9802,0.7924,3.9921,0.8529,9.0408
0.80,-0.0248,-9.8348,4.9801,0.7826,3.9970,0.8500,8.9304
0.80,-0.0248,-9.8348,4.9801,0.7727,4.0020,0.8471,8.8200
0.80,-0.0248,-9.8348,4.9801,0.7629,4.0070,0.8442,8.7095
0.80,-0.0248,-9.8348,4.9801,0.7531,4.0120,0.8413,8.5990
0.80,-0.0248,-9.8348,4.9800,0.7432,4.0170,0.8384,8.4884
0.81,-0.0248,-9.8348,4.9800,0.7334,4.0219,0.8355,8.3777
0.81,-0.0248,-9.8348,4.9800,0.7236,4.0269,0.8325,8.2670
0.81,-0.0248,-9.8348,4.9800,0.7137,4.0319,0.8296,8.1562
0.81,-0.0248,-9.8348,4.9799,0.7039,4.0369,0.8267,8.0453
0.81,-0.0248,-9.8348,4.9799,0.6941,4.0419,0.8237,7.9344
0.81,-0.0248,-9.8348,4.9799,0.6842,4.0468,0.8207,7.8234
0.81,-0.0248,-9.8348,4.9799,0.6744,4.0518,0.8177,7.7124
0.81,-0.0248,-9.8348,4.9798,0.6646,4.0568,0.8148,7.6012
0.81,-0.0248,-9.8348,4.9798,0.6547,4.0618,0.8118,7.4901
0.82,-0.0248,-9.8348,4.9798,0.6449,4.0668,0.8087,7.3789
0.82,-0.0248,-9.8348,4.9798,0.6351,4.0717,0.8057,7.2676
0.82,-0.0248,-9.8348,4.9797,0.6252,4.0767,0.8027,7.1562
0.82,-0.0248,-9.8348,4.9797,0.6154,4.0817,0.7997,7.0449
0.82,-0.0248,-9.8348,4.9797,0.6056,4.0867,0.7966,6.9334
0.82,-0.0248,-9.8348,4.9797,0.5957,4.0917,0.7935,6.8219
0.82,-0.0248,-9.8348,4.9796,0.5859,4.0966,0.7905,6.7104
0.82,-0.0248,-9.8348,4.9796,0.5761,4.1016,0.7874,6.5987
0.82,-0.0248,-9.8348,4.9796,0.5662,4.1066,0.7843,6.4871
0.82,-0.0248,-9.8348,4.9796,0.5564,4.1116,0.7812,6.3754
0.82,-0.0248,-9.8348,4.9795,0.5465,4.1166,0.7781,6.2636
0.83,-0.0248,-9.8348,4.9795,0.5367,4.1215,0.7750,6.1518
0.83,-0.0248,-9.8348,4.9795,0.5269,4.1265,0.7718,6.0400
0.83,-0.0248,-9.8348,4.9795,0.5170,4.1315,0.7687,5.9281
0.83,-0.0248,-9.8348,4.9794,0.5072,4.1365,0.7656,5.8161
0.83,-0.0248,-9.8348,4.9794,0.4974,4.1415,0.7624,5.7041
0.83,-0.0248,-9.8348,4.9794,0.4875,4.1464,0.7592,5.5921
0.83,-0.0248,-9.8348,4.9794,0.4777,4.1514,0.7561,5.4800
0.83,-0.0248,-9.8348,4.9793,0.4679,4.1564,0.7529,5.3679
0.83,-0.0248,-9.8348,4.9793,0.4580,4.1614,0.7497,5.2557
0.84,-0.0248,-9.8348,4.9793,0.4482,4.1664,0.7465,5.1435
0.84,-0.0248,-9.8348,4.9793,0.4384,4.1713,0.7433,5.0313
0.84,-0.0248,-9.8348,4.9792,0.4285,4.1763,0.7400,4.9190
0.84,-0.0248,-9.8348,4.9792,0.4187,4.1813,0.7368,4.8066
0.84,-0.0248,-9.8348,4.9792,0.4089,4.1863,0.7335,4.6943
0.84,-0.0248,-9.8348,4.9792,0.3990,4.1913,0.7303,4.5819
0.84,-0.0248,-9.8348,4.9791,0.3892,4.1962,0.7270,4.4694
0.84,-0.0248,-9.8348,4.9791,0.3794,4.2012,0.7237,4.3569
0.84,-0.0248,-9.8348,4.9791,0.3695,4.2062,0.7205,4.2444
0.84,-0.0248,-9.8348,4.9791,0.3597,4.2112,0.7172,4.1319
0.84,-0.0248,-9.8348,4.9791,0.3499,4.2161,0.7139,4.0193
0.85,-0.0248,-9.8348,4.9790,0.3400,4.2211,0.7105,3.9067
0.85,-0.0248,-9.8348,4.9790,0.3302,4.2261,0.7072,3.7941
0.85,-0.0248,-9.8348,4.9790,0.3204,4.2311,0.7039,3.6814
0.85,-0.0248,-9.8348,4.9790,0.3105,4.2361,0.7005,3.5687
0.85,-0.0248,-9.8348,4.9789,0.3007,4.2410,0.6972,3.4560
0.85,-0.0248,-9.8348,4.9789,0.2908,4.2460,0.6938,3.3432
0.85,-0.0248,-9.8348,4.9789,0.2810,4.2510,0.6904,3.2304
0.85,-0.0248,-9.8348,4.9789,0.2712,4.2560,0.6871,3.1176
0.85,-0.0248,-9.8348,4.9788,0.2613,4.2610,0.6837,3.0048
0.86,-0.0248,-9.8348,4.9788,0.2515,4.2659,0.6803,2.8919
0.86,-0.0248,-9.8348,4.9788,0.2417,4.2709,0.6768,2.7790
0.86,-0.0248,-9.8348,4.9788,0.2318,4.2759,0.6734,2.6661
0.86,-0.0248,-9.8348,4.9787,0.2220,4.2809,0.6700,2.5532
0.86,-0.0248,-9.8348,4.9787,0.2122,4.2859,0.6665,2.4402
0.86,-0.0248,-9.8348,4.9787,0.2023,4.2908,0.6631,2.3273
0.86,-0.0248,-9.8348,4.9787,0.1925,4.2958,0.6596,2.2143
0.86,-0.0248,-9.8348,4.9786,0.1827,4.3008,0.6562,2.1013
0.86,-0.0248,-9.8348,4.9786,0.1728,4.3058,0.6527,1.9882
0.86,-0.0248,-9.8348,4.9786,0.1630,4.3107,0.6492,1.8752
0.86,-0.0248,-9.8348,4.9786,0.1532,4.3157,0.6457,1.7621
0.87,-0.0248,-9.8348,4.9785,0.1433,4.3207,0.6422,1.6491
0.87,-0.0248,-9.8348,4.9785,0.1335,4.3257,0.6386,1.5360
0.87,-0.0248,-9.8348,4.9785,0.1237,4.3307,0.6351,1.4229
0.87,-0.0248,-9.8348,4.9785,0.1138,4.3356,0.6316,1.3098
0.87,-0.0248,-9.8348,4.9784,0.1040,4.3406,0.6280,1.1966
0.87,-0.0248,-9.8348,4.9784,0.0942,4.3456,0.6245,1.0835
0.87,-0.0248,-9.8348,4.9784,0.0843,4.3506,0.6209,0.9704
0.87,-0.0248,-9.8348,4.9784,0.0745,4.3556,0.6173,0.8572
0.87,-0.0248,-9.8348,4.9783,0.0647,4.3605,0.6137,0.7440
0.88,-0.0248,-9.8348,4.9783,0.0548,4.3655,0.6101,0.6309
0.88,-0.0248,-9.8348,4.9783,0.0450,4.3705,0.6065,0.5177
0.88,-0.0248,-9.8348,4.9783,0.0351,4.3755,0.6029,0.4045
0.88,-0.0248,-9.8348,4.9782,0.0253,4.3804,0.5993,0.2913
0.88,-0.0248,-9.8348,4.9782,0.0155,4.3854,0.5956,0.1782
0.88,-0.0248,-9.8348,4.9782,0.0056,4.3904,0.5920,0.0650
0.88,-0.0248,-9.8348,4.9782,-0.0042,4.3954,0.5883,-0.0482
0.88,-0.0248,-9.8348,4.9781,-0.0140,4.4004,0.5846,-0.1614
0.88,-0.0248,-9.8348,4.9781,-0.0239,4.4053,0.5810,-0.2746
0.88,-0.0248,-9.8348,4.9781,-0.0337,4.4103,0.5773,-0.3878
0.88,-0.0248,-9.8348,4.9781,-0.0435,4.4153,0.5736,-0.5010
0.89,-0.0248,-9.8348,4.9780,-0.0534,4.4203,0.5699,-0.6142
0.89,-0.0248,-9.8348,4.9780,-0.0632,4.4253,0.5661,-0.7273
0.89,-0.0248,-9.8348,4.9780,-0.0730,4.4302,0.5624,-0.8405
0.89,-0.0248,-9.8348,4.9780,-0.0829,4.4352,0.5587,-0.9537
0.89,-0.0248,-9.8348,4.9779,-0.0927,4.4402,0.5549,-1.0669
0.89,-0.0248,-9.8348,4.9779,-0.1025,4.4452,0.5512,-1.1800
0.89,-0.0248,-9.8348,4.9779,-0.1124,4.4501,0.5474,-1.2932
0.89,-0.0248,-9.8348,4.9779,-0.1222,4.4551,0.5436,-1.4063
0.89,-0.0248,-9.8348,4.9778,-0.1320,4.4601,0.5398,-1.5194
0.90,-0.0248,-9.8348,4.9778,-0.1419,4.4651,0.5360,-1.6325
0.90,-0.0248,-9.8348,4.9778,-0.1517,4.4701,0.5322,-1.7457
0.90,-0.0248,-9.8348,4.9778,-0.1615,4.4750,0.5284,-1.8588
0.90,-0.0248,-9.8348,4.9777,-0.1714,4.4800,0.5246,-1.9718
0.90,-0.0248,-9.8348,4.9777,-0.1812,4.4850,0.5208,-2.0849
0.90,-0.0248,-9.8348,4.9777,-0.1910,4.4900,0.5169,-2.1980
0.90,-0.0248,-9.8348,4.9777,-0.2009,4.4949,0.5131,-2.3110
0.90,-0.0248,-9.8348,4.9777,-0.2107,4.4999,0.5092,-2.4240
0.90,-0.0248,-9.8348,4.9776,-0.2205,4.5049,0.5053,-2.5370
0.90,-0.0248,-9.8348,4.9776,-0.2304,4.5099,0.5014,-2.6500
0.90,-0.0248,-9.8348,4.9776,-0.2402,4.5149,0.4975,-2.7630
0.91,-0.0248,-9.8348,4.9776,-0.2501,4.5198,0.4936,-2.8759
0.91,-0.0248,-9.8348,4.9775,-0.2599,4.5248,0.4897,-2.9888
0.91,-0.0248,-9.8348,4.9775,-0.2697,4.5298,0.4858,-3.1017
0.91,-0.0248,-9.8348,4.9775,-0.2796,4.5348,0.4819,-3.2146
0.91,-0.0248,-9.8348,4.9775,-0.2894,4.5397,0.4779,-3.3275
0.91,-0.0248,-9.8348,4.9774,-0.2992,4.5447,0.4740,-3.4403
0.91,-0.0248,-9.8348,4.9774,-0.3091,4.5497,0.4700,-3.5531
0.91,-0.0248,-9.8348,4.9774,-0.3189,4.5547,0.4660,-3.6659
0.91,-0.0248,-9.8348,4.9774,-0.3287,4.5597,0.4620,-3.7786
0.92,-0.0248,-9.8348,4.9773,-0.3386,4.5646,0.4580,-3.8913
0.92,-0.0248,-9.8348,4.9773,-0.3484,4.5696,0.4540,-4.0040
0.92,-0.0248,-9.8348,4.9773,-0.3582,4.5746,0.4500,-4.1167
0.92,-0.0248,-9.8348,4.9773,-0.3681,4.5796,0.4460,-4.2293
0.92,-0.0248,-9.8348,4.9772,-0.3779,4.5845,0.4420,-4.3419
0.92,-0.0248,-9.8348,4.9772,-0.3877,4.5895,0.4379,-4.4545
0.92,-0.0248,-9.8348,4.9772,-0.3976,4.5945,0.4339,-4.5670
0.92,-0.0248,-9.8348,4.9772,-0.4074,4.5995,0.4298,-4.6795
0.92,-0.0248,-9.8348,4.9771,-0.4172,4.6044,0.4257,-4.7920
0.92,-0.0248,-9.8348,4.9771,-0.4271,4.6094,0.4217,-4.9044
0.92,-0.0248,-9.8348,4.9771,-0.4369,4.6144,0.4176,-5.0168
0.93,-0.0248,-9.8348,4.9771,-0.4467,4.6194,0.4135,-5.1292
0.93,-0.0248,-9.8348,4.9770,-0.4566,4.6244,0.4093,-5.2415
0.93,-0.0248,-9.8348,4.9770,-0.4664,4.6293,0.4052,-5.3538
0.93,-0.0248,-9.8348,4.9770,-0.4762,4.6343,0.4011,-5.4660
0.93,-0.0248,-9.8348,4.9770,-0.4861,4.6393,0.3970,-5.5782
0.93,-0.0248,-9.8348,4.9769,-0.4959,4.6443,0.3928,-5.6903
0.93,-0.0248,-9.8348,4.9769,-0.5058,4.6492,0.3886,-5.8024
0.93,-0.0248,-9.8348,4.9769,-0.5156,4.6542,0.3845,-5.9145
0.93,-0.0248,-9.8348,4.9769,-0.5254,4.6592,0.3803,-6.0265
0.94,-0.0248,-9.8348,4.9768,-0.5353,4.6642,0.3761,-6.1385
0.94,-0.0248,-9.8348,4.9768,-0.5451,4.6692,0.3719,-6.2505
0.94,-0.0248,-9.8348,4.9768,-0.5549,4.6741,0.3677,-6.3623
0.94,-0.0248,-9.8348,4.9768,-0.5648,4.6791,0.3635,-6.4742
0.94,-0.0248,-9.8348,4.9767,-0.5746,4.6841,0.3592,-6.5860
0.94,-0.0248,-9.8348,4.9767,-0.5844,4.6891,0.3550,-6.6977
0.94,-0.0248,-9.8348,4.9767,-0.5943,4.6940,0.3508,-6.8094
0.94,-0.0248,-9.8348,4.9767,-0.6041,4.6990,0.3465,-6.9210
0.94,-0.0248,-9.8348,4.9766,-0.6139,4.7040,0.3422,-7.0326
0.94,-0.0248,-9.8348,4.9766,-0.6238,4.7090,0.3379,-7.1442
0.94,-0.0248,-9.8348,4.9766,-0.6336,4.7139,0.3337,-7.2556
0.95,-0.0248,-9.8348,4.9766,-0.6434,4.7189,0.3294,-7.3671
0.95,-0.0248,-9.8348,4.9765,-0.6533,4.7239,0.3250,-7.4784
0.95,-0.0248,-9.8348,4.9765,-0.6631,4.7289,0.3207,-7.5898
0.95,-0.0248,-9.8348,4.9765,-0.6729,4.7338,0.3164,-7.7010
0.95,-0.0248,-9.8348,4.9765,-0.6828,4.7388,0.3121,-7.8122
0.95,-0.0248,-9.8348,4.9764,-0.6926,4.7438,0.3077,-7.9234
0.95,-0.0248,-9.8348,4.9764,-0.7024,4.7488,0.3034,-8.0345
0.95,-0.0248,-9.8348,4.9764,-0.7123,4.7538,0.2990,-8.1455
0.95,-0.0248,-9.8348,4.9764,-0.7221,4.7587,0.2946,-8.2564
0.96,-0.0248,-9.8348,4.9764,-0.7319,4.7637,0.2902,-8.3673
0.96,-0.0248,-9.8348,4.9763,-0.7418,4.7687,0.2858,-8.4782
0.96,-0.0248,-9.8348,4.9763,-0.7516,4.7737,0.2814,-8.5890
0.96,-0.0248,-9.8348,4.9763,-0.7614,4.7786,0.2770,-8.6997
0.96,-0.0248,-9.8348,4.9763,-0.7713,4.7836,0.2726,-8.8103
0.96,-0.0248,-9.8348,4.9762,-0.7811,4.7886,0.2681,-8.9209
0.96,-0.0248,-9.8348,4.9762,-0.7910,4.7936,0.2637,-9.0314
0.96,-0.0248,-9.8348,4.9762,-0.8008,4.7985,0.2592,-9.1419
0.96,-0.0248,-9.8348,4.9762,-0.8106,4.8035,0.2548,-9.2523
0.96,-0.0248,-9.8348,4.9761,-0.8205,4.8085,0.2503,-9.3626
0.96,-0.0248,-9.8348,4.9761,-0.8303,4.8135,0.2458,-9.4729
0.97,-0.0248,-9.8348,4.9761,-0.8401,4.8184,0.2413,-9.5830
0.97,-0.0248,-9.8348,4.9761,-0.8500,4.8234,0.2368,-9.6931
0.97,-0.0248,-9.8348,4.9760,-0.8598,4.8284,0.2323,-9.8032
0.97,-0.0248,-9.8348,4.9760,-0.8696,4.8334,0.2278,-9.9132
0.97,-0.0248,-9.8348,4.9760,-0.8795,4.8384,0.2232,-10.0230
0.97,-0.0248,-9.8348,4.9760,-0.8893,4.8433,0.2187,-10.1329
0.97,-0.0248,-9.8348,4.9759,-0.8991,4.8483,0.2141,-10.2426
0.97,-0.0248,-9.8348,4.9759,-0.9090,4.8533,0.2096,-10.3523
0.97,-0.0248,-9.8348,4.9759,-0.9188,4.8583,0.2050,-10.4619
0.98,-0.0248,-9.8348,4.9759,-0.9286,4.8632,0.2004,-10.5714
0.98,-0.0248,-9.8348,4.9758,-0.9385,4.8682,0.1958,-10.6808
0.98,-0.0248,-9.8348,4.9758,-0.9483,4.8732,0.1912,-10.7902
0.98,-0.0248,-9.8348,4.9758,-0.9581,4.8782,0.1866,-10.8995
0.98,-0.0248,-9.8348,4.9758,-0.9680,4.8831,0.1820,-11.0087
0.98,-0.0248,-9.8348,4.9757,-0.9778,4.8881,0.1773,-11.1178
0.98,-0.0248,-9.8348,4.9757,-0.9876,4.8931,0.1727,-11.2269
0.98,-0.0248,-9.8348,4.9757,-0.9975,4.8981,0.1681,-11.3358
0.98,-0.0248,-9.8348,4.9757,-1.0073,4.9030,0.1634,-11.4447
0.98,-0.0248,-9.8348,4.9756,-1.0171,4.9080,0.1587,-11.5535
0.98,-0.0248,-9.8348,4.9756,-1.0270,4.9130,0.1540,-11.6622
0.99,-0.0248,-9.8348,4.9756,-1.0368,4.9180,0.1493,-11.7709
0.99,-0.0248,-9.8348,4.9756,-1.0467,4.9229,0.1446,-11.8794
0.99,-0.0248,-9.8348,4.9755,-1.0565,4.9279,0.1399,-11.9879
0.99,-0.0248,-9.8348,4.9755,-1.0663,4.9329,0.1352,-12.0963
0.99,-0.0248,-9.8348,4.9755,-1.0762,4.9379,0.1305,-12.2046
0.99,-0.0248,-9.8348,4.9755,-1.0860,4.9428,0.1257,-12.3128
0.99,-0.0248,-9.8348,4.9754,-1.0958,4.9478,0.1210,-12.4209
0.99,-0.0248,-9.8348,4.9754,-1.1057,4.9528,0.1162,-12.5289
0.99,-0.0248,-9.8348,4.9754,-1.1155,4.9578,0.1115,-12.6368
1.00,-0.0248,-9.8348,4.9754,-1.1253,4.9627,0.1067,-12.7447
1.00,-0.0248,-9.8348,4.9753,-1.1352,4.9677,0.1019,-12.8525
1.00,-0.0248,-9.8348,4.9753,-1.1450,4.9727,0.0971,-12.9601
1.00,-0.0248,-9.8348,4.9753,-1.1548,4.9777,0.0923,-13.0677
1.00,-0.0248,-9.8348,4.9753,-1.1647,4.9826,0.0875,-13.1752
1.00,-0.0248,-9.8348,4.9752,-1.1745,4.9876,0.0826,-13.2826
1.00,-0.0248,-9.8348,4.9752,-1.1843,4.9926,0.0778,-13.3899
1.00,-0.0248,-9.8348,4.9752,-1.1942,4.9976,0.0729,-13.4970
1.00,-0.0248,-9.8348,4.9752,-1.2040,5.0025,0.0681,-13.6042
1.00,-0.0248,-9.8348,4.9751,-1.2138,5.0075,0.0632,-13.7112
1.01,-0.0248,-9.8348,4.9751,-1.2237,5.0125,0.0583,-13.8181
1.01,-0.0248,-9.8348,4.9751,-1.2335,5.0175,0.0534,-13.9249
1.01,-0.0248,-9.8348,4.9751,-1.2433,5.0225,0.0485,-14.0316
1.01,-0.0248,-9.8348,4.9751,-1.2532,5.0274,0.0436,-14.1382
1.01,-0.0248,-9.8348,4.9750,-1.2630,5.0324,0.0387,-14.2447
1.01,-0.0248,-9.8348,4.9750,-1.2728,5.0374,0.0338,-14.3512
1.01,-0.0248,-9.8348,4.9750,-1.2827,5.0424,0.0288,-14.4575
1.01,-0.0248,-9.8348,4.9750,-1.2925,5.0473,0.0239,-14.5637
1.01,-0.0248,-9.8348,4.9749,-1.3023,5.0523,0.0189,-14.6698
1.01,-0.0247,-9.8347,4.9749,-1.3122,5.0573,0.0140,-14.7758
1.02,-0.0247,-9.8347,4.9749,-1.3220,5.0623,0.0090,-14.8818
1.02,-0.0247,-9.8347,4.9749,-1.3319,5.0672,0.0040,-14.9876
1.02,-0.0247,-9.8347,4.9748,-1.3417,5.0722,-0.0010,-15.0933
1.02,-0.0247,-9.8347,4.9748,-1.3515,5.0772,-0.0060,-15.1989
1.02,-0.0247,-9.8347,4.9748,-1.3614,5.0822,-0.0110,-15.3044
1.02,-0.0247,-9.8347,4.9748,-1.3712,5.0871,-0.0160,-15.4098
1.02,-0.0247,-9.8347,4.9747,-1.3810,5.0921,-0.0211,-15.5151
1.02,-0.0247,-9.8347,4.9747,-1.3909,5.0971,-0.0261,-15.6202
1.02,-0.0247,-9.8347,4.9747,-1.4007,5.1021,-0.0312,-15.7253
1.02,-0.0247,-9.8347,4.9747,-1.4105,5.1070,-0.0362,-15.8303
1.02,-0.0247,-9.8347,4.9746,-1.4204,5.1120,-0.0413,-15.9352
1.03,-0.0247,-9.8347,4.9746,-1.4302,5.1170,-0.0464,-16.0399
1.03,-0.0247,-9.8347,4.9746,-1.4400,5.1219,-0.0515,-16.1445
1.03,-0.0247,-9.8347,4.9746,-1.4499,5.1269,-0.0566,-16.2491
1.03,-0.0247,-9.8347,4.9745,-1.4597,5.1319,-0.0617,-16.3535
1.03,-0.0247,-9.8347,4.9745,-1.4695,5.1369,-0.0668,-16.4578
1.03,-0.0247,-9.8347,4.9745,-1.4794,5.1418,-0.0720,-16.5620
1.03,-0.0247,-9.8347,4.9745,-1.4892,5.1468,-0.0771,-16.6661
1.03,-0.0247,-9.8347,4.9744,-1.4990,5.1518,-0.0823,-16.7701
1.03,-0.0247,-9.8347,4.9744,-1.5089,5.1568,-0.0874,-16.8739
1.03,-0.0247,-9.8347,4.9744,-1.5187,5.1617,-0.0926,-16.9777
1.04,-0.0247,-9.8347,4.9744,-1.5285,5.1667,-0.0978,-17.0813
1.04,-0.0247,-9.8347,4.9743,-1.5384,5.1717,-0.1030,-17.1849
1.04,-0.0247,-9.8347,4.9743,-1.5482,5.1767,-0.1082,-17.2883
1.04,-0.0247,-9.8347,4.9743,-1.5580,5.1816,-0.1134,-17.3916
1.04,-0.0247,-9.8347,4.9743,-1.5679,5.1866,-0.1186,-17.4948
1.04,-0.0247,-9.8347,4.9742,-1.5777,5.1916,-0.1239,-17.5978
1.04,-0.0247,-9.8347,4.9742,-1.5875,5.1966,-0.1291,-17.7008
1.04,-0.0247,-9.8347,4.9742,-1.5974,5.2015,-0.1344,-17.8036
1.04,-0.0247,-9.8347,4.9742,-1.6072,5.2065,-0.1396,-17.9063
1.04,-0.0247,-9.8347,4.9741,-1.6171,5.2115,-0.1449,-18.0089
1.05,-0.0247,-9.8347,4.9741,-1.6269,5.2165,-0.1502,-18.1114
1.05,-0.0247,-9.8347,4.9741,-1.6367,5.2214,-0.1555,-18.2137
1.05,-0.0247,-9.8347,4.9741,-1.6466,5.2264,-0.1608,-18.3160
1.05,-0.0247,-9.8347,4.9740,-1.6564,5.2314,-0.1661,-18.4181
1.05,-0.0247,-9.8347,4.9740,-1.6662,5.2364,-0.1714,-18.5201
1.05,-0.0247,-9.8347,4.9740,-1.6761,5.2413,-0.1767,-18.6220
1.05,-0.0247,-9.8347,4.9740,-1.6859,5.2463,-0.1821,-18.7237
1.05,-0.0247,-9.8347,4.9739,-1.6957,5.2513,-0.1874,-18.8254
1.05,-0.0247,-9.8347,4.9739,-1.7056,5.2563,-0.1928,-18.9269
1.06,-0.0247,-9.8347,4.9739,-1.7154,5.2612,-0.1982,-19.0283
1.06,-0.0247,-9.8347,4.9739,-1.7252,5.2662,-0.2035,-19.1295
1.06,-0.0247,-9.8347,4.9739,-1.7351,5.2712,-0.2089,-19.2307
1.06,-0.0247,-9.8347,4.9738,-1.7449,5.2762,-0.2143,-19.3317
1.06,-0.0247,-9.8347,4.9738,-1.7547,5.2811,-0.2197,-19.4326
1.06,-0.0247,-9.8347,4.9738,-1.7646,5.2861,-0.2252,-19.5334
1.06,-0.0247,-9.8347,4.9738,-1.7744,5.2911,-0.2306,-19.6340
1.06,-0.0247,-9.8347,4.9737,-1.7842,5.2960,-0.2360,-19.7346
1.06,-0.0247,-9.8347,4.9737,-1.7941,5.3010,-0.2415,-19.8350
1.06,-0.0247,-9.8347,4.9737,-1.8039,5.3060,-0.2469,-19.9352
1.06,-0.0247,-9.8347,4.9737,-1.8137,5.3110,-0.2524,-20.0354
1.07,-0.0247,-9.8347,4.9736,-1.8236,5.3159,-0.2579,-20.1354
1.07,-0.0247,-9.8347,4.9736,-1.8334,5.3209,-0.2634,-20.2353
1.07,-0.0247,-9.8347,4.9736,-1.8432,5.3259,-0.2689,-20.3351
1.07,-0.0247,-9.8347,4.9736,-1.8531,5.3309,-0.2744,-20.4347
1.07,-0.0247,-9.8347,4.9735,-1.8629,5.3358,-0.2799,-20.5342
1.07,-0.0247,-9.8347,4.9735,-1.8727,5.3408,-0.2854,-20.6336
1.07,-0.0247,-9.8347,4.9735,-1.8826,5.3458,-0.2910,-20.7329
1.07,-0.0247,-9.8347,4.9735,-1.8924,5.3508,-0.2965,-20.8320
1.07,-0.0247,-9.8347,4.9734,-1.9023,5.3557,-0.3021,-20.9310
1.08,-0.0247,-9.8347,4.9734,-1.9121,5.3607,-0.3076,-21.0298
1.08,-0.0247,-9.8347,4.9734,-1.9219,5.3657,-0.3132,-21.1286
1.08,-0.0247,-9.8347,4.9734,-1.9318,5.3707,-0.3188,-21.2272
1.08,-0.0247,-9.8347,4.9733,-1.9416,5.3756,-0.3244,-21.3257
1.08,-0.0247,-9.8347,4.9733,-1.9514,5.3806,-0.3300,-21.4240
1.08,-0.0247,-9.8347,4.9733,-1.9613,5.3856,-0.3356,-21.5222
1.08,-0.0247,-9.8347,4.9733,-1.9711,5.3905,-0.3412,-21.6203
1.08,-0.0247,-9.8347,4.9732,-1.9809,5.3955,-0.3469,-21.7183
1.08,-0.0247,-9.8347,4.9732,-1.9908,5.4005,-0.3525,-21.8161
1.08,-0.0247,-9.8347,4.9732,-2.0006,5.4055,-0.3582,-21.9138
1.08,-0.0247,-9.8347,4.9732,-2.0104,5.4104,-0.3638,-22.0113
1.09,-0.0247,-9.8347,4.9731,-2.0203,5.4154,-0.3695,-22.1087
1.09,-0.0247,-9.8347,4.9731,-2.0301,5.4204,-0.3752,-22.2060
1.09,-0.0247,-9.8347,4.9731,-2.0399,5.4254,-0.3809,-22.3032
1.09,-0.0247,-9.8347,4.9731,-2.0498,5.4303,-0.3866,-22.4002
1.09,-0.0247,-9.8347,4.9730,-2.0596,5.4353,-0.3923,-22.4971
1.09,-0.0247,-9.8347,4.9730,-2.0694,5.4403,-0.3980,-22.5938
1.09,-0.0247,-9.8347,4.9730,-2.0793,5.4453,-0.4038,-22.6904
1.09,-0.0247,-9.8347,4.9730,-2.0891,5.4502,-0.4095,-22.7869
1.09,-0.0247,-9.8347,4.9729,-2.0989,5.4552,-0.4153,-22.8832
1.10,-0.0247,-9.8347,4.9729,-2.1088,5.4602,-0.4210,-22.9795
1.10,-0.0247,-9.8347,4.9729,-2.1186,5.4651,-0.4268,-23.0755
1.10,-0.0247,-9.8347,4.9729,-2.1284,5.4701,-0.4326,-23.1715
1.10,-0.0247,-9.8347,4.9728,-2.1383,5.4751,-0.4384,-23.2673
1.10,-0.0247,-9.8347,4.9728,-2.1481,5.4801,-0.4442,-23.3629
1.10,-0.0247,-9.8347,4.9728,-2.1579,5.4850,-0.4500,-23.4585
1.10,-0.0247,-9.8347,4.9728,-2.1678,5.4900,-0.4558,-23.5538
1.10,-0.0247,-9.8347,4.9727,-2.1776,5.4950,-0.4617,-23.6491
1.10,-0.0247,-9.8347,4.9727,-2.1875,5.5000,-0.4675,-23.7442
1.10,-0.0247,-9.8347,4.9727,-2.1973,5.5049,-0.4734,-23.8392
1.10,-0.0247,-9.8347,4.9727,-2.2071,5.5099,-0.4792,-23.9340
1.11,-0.0247,-9.8347,4.9727,-2.2170,5.5149,-0.4851,-24.0287
1.11,-0.0247,-9.8347,4.9726,-2.2268,5.5198,-0.4910,-24.1233
1.11,-0.0247,-9.8347,4.9726,-2.2366,5.5248,-0.4969,-24.2177
1.11,-0.0247,-9.8347,4.9726,-2.2465,5.5298,-0.5028,-24.3120
1.11,-0.0247,-9.8347,4.9726,-2.2563,5.5348,-0.5087,-24.4061
1.11,-0.0247,-9.8347,4.9725,-2.2661,5.5397,-0.5146,-24.5001
1.11,-0.0247,-9.8347,4.9725,-2.2760,5.5447,-0.5205,-24.5940
1.11,-0.0247,-9.8347,4.9725,-2.2858,5.5497,-0.5265,-24.6877
1.11,-0.0247,-9.8347,4.9725,-2.2956,5.5547,-0.5324,-24.7813
1.12,-0.0247,-9.8347,4.9724,-2.3055,5.5596,-0.5384,-24.8748
1.12,-0.0247,-9.8347,4.9724,-2.3153,5.5646,-0.5444,-24.9681
1.12,-0.0247,-9.8347,4.9724,-2.3251,5.5696,-0.5503,-25.0612
1.12,-0.0247,-9.8347,4.9724,-2.3350,5.5745,-0.5563,-25.1543
1.12,-0.0247,-9.8347,4.9723,-2.3448,5.5795,-0.5623,-25.2472
1.12,-0.0247,-9.8347,4.9723,-2.3546,5.5845,-0.5683,-25.3399
1.12,-0.0247,-9.8347,4.9723,-2.3645,5.5895,-0.5744,-25.4325
1.12,-0.0247,-9.8347,4.9723,-2.3743,5.5944,-0.5804,-25.5250
1.12,-0.0247,-9.8347,4.9722,-2.3841,5.5994,-0.5864,-25.6173
1.12,-0.0247,-9.8347,4.9722,-2.3940,5.6044,-0.5925,-25.7095
1.12,-0.0247,-9.8347,4.9722,-2.4038,5.6094,-0.5985,-25.8015
1.13,-0.0247,-9.8347,4.9722,-2.4136,5.6143,-0.6046,-25.8934
1.13,-0.0247,-9.8347,4.9721,-2.4235,5.6193,-0.6107,-25.9851
1.13,-0.0247,-9.8347,4.9721,-2.4333,5.6243,-0.6168,-26.0768
1.13,-0.0247,-9.8347,4.9721,-2.4431,5.6292,-0.6229,-26.1682
1.13,-0.0247,-9.8347,4.9721,-2.4530,5.6342,-0.6290,-26.2596
1.13,-0.0247,-9.8347,4.9720,-2.4628,5.6392,-0.6351,-26.3507
1.13,-0.0247,-9.8347,4.9720,-2.4727,5.6442,-0.6412,-26.4418
1.13,-0.0247,-9.8347,4.9720,-2.4825,5.6491,-0.6474,-26.5327
1.13,-0.0247,-9.8347,4.9720,-2.4923,5.6541,-0.6535,-26.6234
1.14,-0.0247,-9.8347,4.9719,-2.5022,5.6591,-0.6597,-26.7140
1.14,-0.0247,-9.8347,4.9719,-2.5120,5.6640,-0.6658,-26.8045
1.14,-0.0247,-9.8347,4.9719,-2.5218,5.6690,-0.6720,-26.8948
1.14,-0.0247,-9.8347,4.9719,-2.5317,5.6740,-0.6782,-26.9850
1.14,-0.0247,-9.8347,4.9718,-2.5415,5.6790,-0.6844,-27.0751
1.14,-0.0247,-9.8347,4.9718,-2.5513,5.6839,-0.6906,-27.1650
1.14,-0.0247,-9.8347,4.9718,-2.5612,5.6889,-0.6968,-27.2547
1.14,-0.0247,-9.8347,4.9718,-2.5710,5.6939,-0.7030,-27.3443
1.14,-0.0247,-9.8347,4.9717,-2.5808,5.6989,-0.7093,-27.4338
1.14,-0.0247,-9.8347,4.9717,-2.5907,5.7038,-0.7155,-27.5231
1.14,-0.0247,-9.8347,4.9717,-2.6005,5.7088,-0.7218,-27.6123
1.15,-0.0247,-9.8347,4.9717,-2.6103,5.7138,-0.7280,-27.7013
1.15,-0.0247,-9.8347,4.9716,-2.6202,5.7187,-0.7343,-27.7902
1.15,-0.0247,-9.8347,4.9716,-2.6300,5.7237,-0.7406,-27.8789
1.15,-0.0247,-9.8347,4.9716,-2.6398,5.7287,-0.7469,-27.9675
1.15,-0.0247,-9.8347,4.9716,-2.6497,5.7337,-0.7532,-28.0560
1.15,-0.0247,-9.8347,4.9716,-2.6595,5.7386,-0.7595,-28.1443
1.15,-0.0247,-9.8347,4.9715,-2.6693,5.7436,-0.7658,-28.2325
1.15,-0.0247,-9.8347,4.9715,-2.6792,5.7486,-0.7722,-28.3205
1.15,-0.0247,-9.8347,4.9715,-2.6890,5.7535,-0.7785,-28.4084
1.16,-0.0247,-9.8347,4.9715,-2.6988,5.7585,-0.7849,-28.4961
1.16,-0.0247,-9.8347,4.9714,-2.7087,5.7635,-0.7912,-28.5837
1.16,-0.0247,-9.8347,4.9714,-2.7185,5.7685,-0.7976,-28.6711
1.16,-0.0247,-9.8347,4.9714,-2.7283,5.7734,-0.8040,-28.7584
1.16,-0.0247,-9.8347,4.9714,-2.7382,5.7784,-0.8104,-28.8456
1.16,-0.0247,-9.8347,4.9713,-2.7480,5.7834,-0.8168,-28.9326
1.16,-0.0247,-9.8347,4.9713,-2.7578,5.7883,-0.8232,-29.0195
1.16,-0.0247,-9.8347,4.9713,-2.7677,5.7933,-0.8296,-29.1062
1.16,-0.0247,-9.8347,4.9713,-2.7775,5.7983,-0.8361,-29.1928
1.16,-0.0247,-9.8347,4.9712,-2.7874,5.8033,-0.8425,-29.2792
1.16,-0.0247,-9.8347,4.9712,-2.7972,5.8082,-0.8490,-29.3655
1.17,-0.0247,-9.8347,4.9712,-2.8070,5.8132,-0.8554,-29.4516
1.17,-0.0247,-9.8347,4.9712,-2.8169,5.8182,-0.8619,-29.5376
1.17,-0.0247,-9.8347,4.9711,-2.8267,5.8231,-0.8684,-29.6235
1.17,-0.0247,-9.8347,4.9711,-2.8365,5.8281,-0.8749,-29.7092
1.17,-0.0247,-9.8347,4.9711,-2.8464,5.8331,-0.8814,-29.7947
1.17,-0.0247,-9.8347,4.9711,-2.8562,5.8381,-0.8879,-29.8801
1.17,-0.0247,-9.8347,4.9710,-2.8660,5.8430,-0.8944,-29.9654
1.17,-0.0247,-9.8347,4.9710,-2.8759,5.8480,-0.9009,-30.0505
1.17,-0.0247,-9.8347,4.9710,-2.8857,5.8530,-0.9075,-30.1355
1.18,-0.0247,-9.8347,4.9710,-2.8955,5.8579,-0.9140,-30.2203
1.18,-0.0247,-9.8347,4.9709,-2.9054,5.8629,-0.9206,-30.3050
1.18,-0.0247,-9.8347,4.9709,-2.9152,5.8679,-0.9272,-30.3895
1.18,-0.0247,-9.8347,4.9709,-2.9250,5.8729,-0.9337,-30.4739
1.18,-0.0247,-9.8347,4.9709,-2.9349,5.8778,-0.9403,-30.5582
1.18,-0.0247,-9.8347,4.9708,-2.9447,5.8828,-0.9469,-30.6423
1.18,-0.0247,-9.8347,4.9708,-2.9545,5.8878,-0.9535,-30.7263
1.18,-0.0247,-9.8347,4.9708,-2.9644,5.8927,-0.9602,-30.8101
1.18,-0.0247,-9.8347,4.9708,-2.9742,5.8977,-0.9668,-30.8937
1.18,-0.0247,-9.8347,4.9707,-2.9840,5.9027,-0.9734,-30.9773
1.18,-0.0247,-9.8347,4.9707,-2.9939,5.9077,-0.9801,-31.0606
1.19,-0.0247,-9.8347,4.9707,-3.0037,5.9126,-0.9867,-31.1439
1.19,-0.0247,-9.8347,4.9707,-3.0135,5.9176,-0.9934,-31.2270
1.19,-0.0247,-9.8347,4.9706,-3.0234,5.9226,-1.0001,-31.3099
1.19,-0.0247,-9.8347,4.9706,-3.0332,5.9275,-1.0068,-31.3927
1.19,-0.0247,-9.8347,4.9706,-3.0430,5.9325,-1.0135,-31.4754
1.19,-0.0247,-9.8347,4.9706,-3.0529,5.9375,-1.0202,-31.5579
1.19,-0.0247,-9.8347,4.9705,-3.0627,5.9424,-1.0269,-31.6402
1.19,-0.0247,-9.8347,4.9705,-3.0726,5.9474,-1.0336,-31.7225
1.19,-0.0247,-9.8347,4.9705,-3.0824,5.9524,-1.0404,-31.8045
1.20,-0.0247,-9.8347,4.9705,-3.0922,5.9574,-1.0471,-31.8865
1.20,-0.0247,-9.8347,4.9705,-3.1021,5.9623,-1.0539,-31.9682
1.20,-0.0247,-9.8347,4.9704,-3.1119,5.9673,-1.0606,-32.0499
1.20,-0.0247,-9.8347,4.9704,-3.1217,5.9723,-1.0674,-32.1314
1.20,-0.0247,-9.8347,4.9704,-3.1316,5.9772,-1.0742,-32.2127
1.20,-0.0247,-9.8347,4.9704,-3.1414,5.9822,-1.0810,-32.2939
1.20,-0.0247,-9.8347,4.9703,-3.1512,5.9872,-1.0878,-32.3750
1.20,-0.0247,-9.8347,4.9703,-3.1611,5.9922,-1.0946,-32.4559
1.20,-0.0247,-9.8347,4.9703,-3.1709,5.9971,-1.1014,-32.5367
1.20,-0.0247,-9.8347,4.9703,-3.1807,6.0021,-1.1083,-32.6173
1.20,-0.0247,-9.8347,4.9702,-3.1906,6.0071,-1.1151,-32.6978
1.21,-0.0247,-9.8347,4.9702,-3.2004,6.0120,-1.1220,-32.7781
1.21,-0.0247,-9.8347,4.9702,-3.2102,6.0170,-1.1288,-32.8583
1.21,-0.0247,-9.8347,4.9702,-3.2201,6.0220,-1.1357,-32.9384
1.21,-0.0247,-9.8347,4.9701,-3.2299,6.0269,-1.1426,-33.0183
1.21,-0.0247,-9.8347,4.9701,-3.2397,6.0319,-1.1495,-33.0981
1.21,-0.0247,-9.8347,4.9701,-3.2496,6.0369,-1.1564,-33.1777
1.21,-0.0247,-9.8347,4.9701,-3.2594,6.0419,-1.1633,-33.2572
1.21,-0.0247,-9.8347,4.9700,-3.2692,6.0468,-1.1702,-33.3365
1.21,-0.0247,-9.8347,4.9700,-3.2791,6.0518,-1.1772,-33.4157
1.22,-0.0247,-9.8347,4.9700,-3.2889,6.0568,-1.1841,-33.4947
1.22,-0.0247,-9.8347,4.9700,-3.2987,6.0617,-1.1911,-33.5736
1.22,-0.0247,-9.8347,4.9699,-3.3086,6.0667,-1.1980,-33.6524
1.22,-0.0247,-9.8347,4.9699,-3.3184,6.0717,-1.2050,-33.7310
1.22,-0.0247,-9.8347,4.9699,-3.3282,6.0766,-1.2120,-33.8095
1.22,-0.0247,-9.8347,4.9699,-3.3381,6.0816,-1.2190,-33.8878
1.22,-0.0247,-9.8347,4.9698,-3.3479,6.0866,-1.2260,-33.9660
1.22,-0.0247,-9.8347,4.9698,-3.3577,6.0916,-1.2330,-34.0441
1.22,-0.0247,-9.8347,4.9698,-3.3676,6.0965,-1.2400,-34.1220
1.22,-0.0247,-9.8347,4.9698,-3.3774,6.1015,-1.2471,-34.1997
1.23,-0.0247,-9.8347,4.9697,-3.3873,6.1065,-1.2541,-34.2774
1.23,-0.0247,-9.8347,4.9697,-3.3971,6.1114,-1.2611,-34.3548
1.23,-0.0247,-9.8347,4.9697,-3.4069,6.1164,-1.2682,-34.4322
1.23,-0.0247,-9.8347,4.9697,-3.4168,6.1214,-1.2753,-34.5094
1.23,-0.0247,-9.8347,4.9696,-3.4266,6.1263,-1.2824,-34.5864
1.23,-0.0247,-9.8347,4.9696,-3.4364,6.1313,-1.2895,-34.6633
1.23,-0.0247,-9.8347,4.9696,-3.4463,6.1363,-1.2966,-34.7401
1.23,-0.0247,-9.8347,4.9696,-3.4561,6.1413,-1.3037,-34.8167
1.23,-0.0247,-9.8347,4.9695,-3.4659,6.1462,-1.3108,-34.8932
1.23,-0.0247,-9.8347,4.9695,-3.4758,6.1512,-1.3179,-34.9695
1.24,-0.0247,-9.8347,4.9695,-3.4856,6.1562,-1.3251,-35.0457
1.24,-0.0247,-9.8347,4.9695,-3.4954,6.1611,-1.3322,-35.1218
1.24,-0.0247,-9.8347,4.9695,-3.5053,6.1661,-1.3394,-35.1977
1.24,-0.0247,-9.8347,4.9694,-3.5151,6.1711,-1.3465,-35.2735
1.24,-0.0247,-9.8347,4.9694,-3.5249,6.1760,-1.3537,-35.3491
1.24,-0.0247,-9.8347,4.9694,-3.5348,6.1810,-1.3609,-35.4246
1.24,-0.0247,-9.8347,4.9694,-3.5446,6.1860,-1.3681,-35.5000
1.24,-0.0247,-9.8347,4.9693,-3.5544,6.1910,-1.3753,-35.5752
1.24,-0.0247,-9.8347,4.9693,-3.5643,6.1959,-1.3825,-35.6503
1.24,-0.0247,-9.8347,4.9693,-3.5741,6.2009,-1.3898,-35.7252
1.25,-0.0247,-9.8347,4.9693,-3.5839,6.2059,-1.3970,-35.8000
1.25,-0.0247,-9.8347,4.9692,-3.5938,6.2108,-1.4043,-35.8746
1.25,-0.0247,-9.8347,4.9692,-3.6036,6.2158,-1.4115,-35.9492
1.25,-0.0247,-9.8347,4.9692,-3.6134,6.2208,-1.4188,-36.0235
1.25,-0.0247,-9.8347,4.9692,-3.6233,6.2257,-1.4261,-36.0978
1.25,-0.0247,-9.8347,4.9691,-3.6331,6.2307,-1.4334,-36.1719
1.25,-0.0247,-9.8347,4.9691,-3.6429,6.2357,-1.4407,-36.2458
1.25,-0.0247,-9.8347,4.9691,-3.6528,6.2406,-1.4480,-36.3196
1.25,-0.0247,-9.8347,4.9691,-3.6626,6.2456,-1.4553,-36.3933
1.25,-0.0247,-9.8347,4.9690,-3.6724,6.2506,-1.4626,-36.4669
1.26,-0.0247,-9.8347,4.9690,-3.6823,6.2556,-1.4699,-36.5403
1.26,-0.0247,-9.8347,4.9690,-3.6921,6.2605,-1.4773,-36.6135
1.26,-0.0247,-9.8347,4.9690,-3.7020,6.2655,-1.4846,-36.6867
1.26,-0.0247,-9.8347,4.9689,-3.7118,6.2705,-1.4920,-36.7597
1.26,-0.0247,-9.8347,4.9689,-3.7216,6.2754,-1.4994,-36.8325
1.26,-0.0247,-9.8347,4.9689,-3.7315,6.2804,-1.5068,-36.9052
1.26,-0.0247,-9.8347,4.9689,-3.7413,6.2854,-1.5142,-36.9778
1.26,-0.0247,-9.8347,4.9688,-3.7511,6.2903,-1.5216,-37.0502
1.26,-0.0247,-9.8347,4.9688,-3.7610,6.2953,-1.5290,-37.1225
1.26,-0.0247,-9.8347,4.9688,-3.7708,6.3003,-1.5364,-37.1947
1.27,-0.0247,-9.8347,4.9688,-3.7806,6.3052,-1.5439,-37.2667
1.27,-0.0247,-9.8347,4.9687,-3.7905,6.3102,-1.5513,-37.3386
1.27,-0.0247,-9.8347,4.9687,-3.8003,6.3152,-1.5588,-37.4104
1.27,-0.0247,-9.8347,4.9687,-3.8101,6.3202,-1.5662,-37.4820
1.27,-0.0247,-9.8347,4.9687,-3.8200,6.3251,-1.5737,-37.5535
1.27,-0.0247,-9.8347,4.9686,-3.8298,6.3301,-1.5812,-37.6248
1.27,-0.0247,-9.8347,4.9686,-3.8396,6.3351,-1.5887,-37.6960
1.27,-0.0247,-9.8347,4.9686,-3.8495,6.3400,-1.5962,-37.7671
1.27,-0.0247,-9.8347,4.9686,-3.8593,6.3450,-1.6037,-37.8380
1.27,-0.0247,-9.8347,4.9685,-3.8691,6.3500,-1.6112,-37.9088
1.28,-0.0247,-9.8347,4.9685,-3.8790,6.3549,-1.6188,-37.9795
1.28,-0.0247,-9.8347,4.9685,-3.8888,6.3599,-1.6263,-38.0500
1.28,-0.0247,-9.8347,4.9685,-3.8986,6.3649,-1.6339,-38.1204
1.28,-0.0247,-9.8347,4.9685,-3.9085,6.3698,-1.6414,-38.1907
1.28,-0.0247,-9.8347,4.9684,-3.9183,6.3748,-1.6490,-38.2608
1.28,-0.0247,-9.8347,4.9684,-3.9281,6.3798,-1.6566,-38.3308
1.28,-0.0247,-9.8347,4.9684,-3.9380,6.3847,-1.6642,-38.4006
1.28,-0.0247,-9.8347,4.9684,-3.9478,6.3897,-1.6718,-38.4704
1.28,-0.0247,-9.8347,4.9683,-3.9576,6.3947,-1.6794,-38.5399
1.28,-0.0247,-9.8347,4.9683,-3.9675,6.3997,-1.6870,-38.6094
1.28,-0.0247,-9.8347,4.9683,-3.9773,6.4046,-1.6946,-38.6787
1.29,-0.0247,-9.8347,4.9683,-3.9871,6.4096,-1.7023,-38.7479
1.29,-0.0247,-9.8347,4.9682,-3.9970,6.4146,-1.7099,-38.8170
1.29,-0.0247,-9.8347,4.9682,-4.0068,6.4195,-1.7176,-38.8859
1.29,-0.0247,-9.8347,4.9682,-4.0167,6.4245,-1.7253,-38.9547
1.29,-0.0247,-9.8347,4.9682,-4.0265,6.4295,-1.7329,-39.0233
1.29,-0.0247,-9.8347,4.9681,-4.0363,6.4344,-1.7406,-39.0919
1.29,-0.0247,-9.8347,4.9681,-4.0462,6.4394,-1.7483,-39.1602
1.29,-0.0247,-9.8347,4.9681,-4.0560,6.4444,-1.7561,-39.2285
1.29,-0.0247,-9.8347,4.9681,-4.0658,6.4493,-1.7638,-39.2966
1.30,-0.0247,-9.8347,4.9680,-4.0757,6.4543,-1.7715,-39.3646
1.30,-0.0247,-9.8347,4.9680,-4.0855,6.4593,-1.7792,-39.4325
1.30,-0.0247,-9.8347,4.9680,-4.0953,6.4642,-1.7870,-39.5002
1.30,-0.0247,-9.8347,4.9680,-4.1052,6.4692,-1.7948,-39.5678
1.30,-0.0247,-9.8347,4.9679,-4.1150,6.4742,-1.8025,-39.6353
1.30,-0.0247,-9.8347,4.9679,-4.1248,6.4791,-1.8103,-39.7026
1.30,-0.0247,-9.8347,4.9679,-4.1347,6.4841,-1.8181,-39.7699
1.30,-0.0247,-9.8347,4.9679,-4.1445,6.4891,-1.8259,-39.8369
1.30,-0.0247,-9.8347,4.9678,-4.1543,6.4940,-1.8337,-39.9039
1.30,-0.0247,-9.8347,4.9678,-4.1642,6.4990,-1.8415,-39.9707
1.30,-0.0247,-9.8347,4.9678,-4.1740,6.5040,-1.8494,-40.0374
1.31,-0.0247,-9.8347,4.9678,-4.1838,6.5090,-1.8572,-40.1040
1.31,-0.0247,-9.8347,4.9677,-4.1937,6.5139,-1.8650,-40.1704
1.31,-0.0247,-9.8347,4.9677,-4.2035,6.5189,-1.8729,-40.2367
1.31,-0.0247,-9.8347,4.9677,-4.2133,6.5239,-1.8808,-40.3029
1.31,-0.0247,-9.8347,4.9677,-4.2232,6.5288,-1.8886,-40.3689
1.31,-0.0247,-9.8347,4.9676,-4.2330,6.5338,-1.8965,-40.4348
1.31,-0.0247,-9.8347,4.9676,-4.2428,6.5388,-1.9044,-40.5006
1.31,-0.0247,-9.8347,4.9676,-4.2527,6.5437,-1.9123,-40.5663
1.31,-0.0247,-9.8347,4.9676,-4.2625,6.5487,-1.9203,-40.6318
1.32,-0.0247,-9.8347,4.9676,-4.2723,6.5537,-1.9282,-40.6972
1.32,-0.0247,-9.8347,4.9675,-4.2822,6.5586,-1.9361,-40.7625
1.32,-0.0247,-9.8347,4.9675,-4.2920,6.5636,-1.9441,-40.8276
1.32,-0.0247,-9.8347,4.9675,-4.3018,6.5686,-1.9520,-40.8927
1.32,-0.0247,-9.8347,4.9675,-4.3117,6.5735,-1.9600,-40.9576
1.32,-0.0247,-9.8347,4.9674,-4.3215,6.5785,-1.9680,-41.0223
1.32,-0.0247,-9.8347,4.9674,-4.3314,6.5835,-1.9760,-41.0870
1.32,-0.0247,-9.8347,4.9674,-4.3412,6.5884,-1.9840,-41.1515
1.32,-0.0247,-9.8347,4.9674,-4.3510,6.5934,-1.9920,-41.2159
1.32,-0.0247,-9.8347,4.9673,-4.3609,6.5984,-2.0000,-41.2801
1.32,-0.0247,-9.8347,4.9673,-4.3707,6.6033,-2.0080,-41.3443
1.33,-0.0247,-9.8347,4.9673,-4.3805,6.6083,-2.0160,-41.4083
1.33,-0.0247,-9.8347,4.9673,-4.3904,6.6133,-2.0241,-41.4722
1.33,-0.0247,-9.8347,4.9672,-4.4002,6.6182,-2.0321,-41.5359
1.33,-0.0247,-9.8347,4.9672,-4.4100,6.6232,-2.0402,-41.5996
1.33,-0.0247,-9.8347,4.9672,-4.4199,6.6282,-2.0483,-41.6631
1.33,-0.0247,-9.8347,4.9672,-4.4297,6.6331,-2.0564,-41.7265
1.33,-0.0247,-9.8347,4.9671,-4.4395,6.6381,-2.0645,-41.7897
1.33,-0.0247,-9.8347,4.9671,-4.4494,6.6431,-2.0726,-41.8529
1.33,-0.0247,-9.8347,4.9671,-4.4592,6.6480,-2.0807,-41.9159
1.34,-0.0247,-9.8347,4.9671,-4.4690,6.6530,-2.0888,-41.9788
1.34,-0.0247,-9.8347,4.9670,-4.4789,6.6580,-2.0969,-42.0415
1.34,-0.0247,-9.8347,4.9670,-4.4887,6.6629,-2.1051,-42.1042
1.34,-0.0247,-9.8347,4.9670,-4.4985,6.6679,-2.1132,-42.1667
1.34,-0.0247,-9.8347,4.9670,-4.5084,6.6729,-2.1214,-42.2291
1.34,-0.0247,-9.8347,4.9669,-4.5182,6.6779,-2.1296,-42.2914
1.34,-0.0247,-9.8347,4.9669,-4.5280,6.6828,-2.1378,-42.3535
1.34,-0.0247,-9.8347,4.9669,-4.5379,6.6878,-2.1459,-42.4156
1.34,-0.0247,-9.8347,4.9669,-4.5477,6.6928,-2.1541,-42.4775
1.34,-0.0247,-9.8347,4.9668,-4.5575,6.6977,-2.1624,-42.5393
1.34,-0.0247,-9.8347,4.9668,-4.5674,6.7027,-2.1706,-42.6009
1.35,-0.0247,-9.8347,4.9668,-4.5772,6.7077,-2.1788,-42.6625
1.35,-0.0247,-9.8347,4.9668,-4.5870,6.7126,-2.1871,-42.7239
1.35,-0.0247,-9.8347,4.9667,-4.5969,6.7176,-2.1953,-42.7852
1.35,-0.0247,-9.8347,4.9667,-4.6067,6.7226,-2.2036,-42.8464
1.35,-0.0247,-9.8347,4.9667,-4.6165,6.7275,-2.2118,-42.9075
1.35,-0.0247,-9.8347,4.9667,-4.6264,6.7325,-2.2201,-42.9684
1.35,-0.0247,-9.8347,4.9666,-4.6362,6.7375,-2.2284,-43.0292
1.35,-0.0247,-9.8347,4.9666,-4.6461,6.7424,-2.2367,-43.0899
1.35,-0.0247,-9.8347,4.9666,-4.6559,6.7474,-2.2450,-43.1505
1.36,-0.0247,-9.8347,4.9666,-4.6657,6.7524,-2.2533,-43.2110
1.36,-0.0247,-9.8347,4.9666,-4.6756,6.7573,-2.2617,-43.2713
1.36,-0.0247,-9.8347,4.9665,-4.6854,6.7623,-2.2700,-43.3316
1.36,-0.0247,-9.8347,4.9665,-4.6952,6.7673,-2.2784,-43.3917
1.36,-0.0247,-9.8347,4.9665,-4.7051,6.7722,-2.2867,-43.4517
1.36,-0.0247,-9.8347,4.9665,-4.7149,6.7772,-2.2951,-43.5115
1.36,-0.0247,-9.8347,4.9664,-4.7247,6.7822,-2.3035,-43.5713
1.36,-0.0247,-9.8347,4.9664,-4.7346,6.7871,-2.3119,-43.6309
1.36,-0.0247,-9.8347,4.9664,-4.7444,6.7921,-2.3203,-43.6905
1.36,-0.0247,-9.8347,4.9664,-4.7542,6.7971,-2.3287,-43.7499
1.36,-0.0247,-9.8347,4.9663,-4.7641,6.8020,-2.3371,-43.8091
1.37,-0.0247,-9.8347,4.9663,-4.7739,6.8070,-2.3455,-43.8683
1.37,-0.0247,-9.8347,4.9663,-4.7837,6.8120,-2.3540,-43.9274
1.37,-0.0247,-9.8347,4.9663,-4.7936,6.8169,-2.3624,-43.9863
1.37,-0.0247,-9.8347,4.9662,-4.8034,6.8219,-2.3709,-44.0451
1.37,-0.0247,-9.8347,4.9662,-4.8132,6.8269,-2.3793,-44.1038
1.37,-0.0247,-9.8347,4.9662,-4.8231,6.8318,-2.3878,-44.1624
1.37,-0.0247,-9.8347,4.9662,-4.8329,6.8368,-2.3963,-44.2209
1.37,-0.0247,-9.8347,4.9661,-4.8427,6.8418,-2.4048,-44.2792
1.37,-0.0247,-9.8347,4.9661,-4.8526,6.8467,-2.4133,-44.3375
1.38,-0.0247,-9.8347,4.9661,-4.8624,6.8517,-2.4218,-44.3956
1.38,-0.0247,-9.8347,4.9661,-4.8722,6.8567,-2.4304,-44.4536
1.38,-0.0247,-9.8347,4.9660,-4.8821,6.8616,-2.4389,-44.5115
1.38,-0.0247,-9.8347,4.9660,-4.8919,6.8666,-2.4474,-44.5693
1.38,-0.0247,-9.8347,4.9660,-4.9017,6.8716,-2.4560,-44.6270
1.38,-0.0247,-9.8347,4.9660,-4.9116,6.8765,-2.4646,-44.6845
1.38,-0.0247,-9.8347,4.9659,-4.9214,6.8815,-2.4731,-44.7420
1.38,-0.0247,-9.8347,4.9659,-4.9312,6.8865,-2.4817,-44.7993
1.38,-0.0247,-9.8347,4.9659,-4.9411,6.8914,-2.4903,-44.8565
1.38,-0.0247,-9.8347,4.9659,-4.9509,6.8964,-2.4989,-44.9136
1.38,-0.0247,-9.8347,4.9658,-4.9607,6.9013,-2.5075,-44.9706
1.39,-0.0247,-9.8347,4.9658,-4.9706,6.9063,-2.5162,-45.0275
1.39,-0.0247,-9.8347,4.9658,-4.9804,6.9113,-2.5248,-45.0842
1.39,-0.0247,-9.8347,4.9658,-4.9903,6.9162,-2.5335,-45.1409
1.39,-0.0247,-9.8347,4.9657,-5.0001,6.9212,-2.5421,-45.1974
1.39,-0.0247,-9.8347,4.9657,-5.0099,6.9262,-2.5508,-45.2538
1.39,-0.0247,-9.8347,4.9657,-5.0198,6.9311,-2.5594,-45.3102
1.39,-0.0247,-9.8347,4.9657,-5.0296,6.9361,-2.5681,-45.3664
1.39,-0.0247,-9.8347,4.9657,-5.0394,6.9411,-2.5768,-45.4225
1.39,-0.0247,-9.8347,4.9656,-5.0493,6.9460,-2.5855,-45.4785
1.40,-0.0247,-9.8347,4.9656,-5.0591,6.9510,-2.5942,-45.5343
1.40,-0.0247,-9.8347,4.9656,-5.0689,6.9560,-2.6030,-45.5901
1.40,-0.0247,-9.8347,4.9656,-5.0788,6.9609,-2.6117,-45.6457
1.40,-0.0247,-9.8347,4.9655,-5.0886,6.9659,-2.6204,-45.7013
1.40,-0.0247,-9.8347,4.9655,-5.0984,6.9709,-2.6292,-45.7567
1.40,-0.0247,-9.8347,4.9655,-5.1083,6.9758,-2.6380,-45.8120
1.40,-0.0247,-9.8347,4.9655,-5.1181,6.9808,-2.6467,-45.8673
1.40,-0.0247,-9.8347,4.9654,-5.1279,6.9858,-2.6555,-45.9224
1.40,-0.0247,-9.8347,4.9654,-5.1378,6.9907,-2.6643,-45.9774
1.40,-0.0247,-9.8347,4.9654,-5.1476,6.9957,-2.6731,-46.0323
1.40,-0.0247,-9.8347,4.9654,-5.1574,7.0007,-2.6819,-46.0870
1.41,-0.0247,-9.8347,4.9653,-5.1673,7.0056,-2.6907,-46.1417
1.41,-0.0247,-9.8347,4.9653,-5.1771,7.0106,-2.6996,-46.1963
1.41,-0.0247,-9.8347,4.9653,-5.1869,7.0156,-2.7084,-46.2507
1.41,-0.0247,-9.8347,4.9653,-5.1968,7.0205,-2.7173,-46.3051
1.41,-0.0247,-9.8347,4.9652,-5.2066,7.0255,-2.7261,-46.3593
1.41,-0.0247,-9.8347,4.9652,-5.2164,7.0305,-2.7350,-46.4135
1.41,-0.0247,-9.8347,4.9652,-5.2263,7.0354,-2.7439,-46.4675
1.41,-0.0247,-9.8347,4.9652,-5.2361,7.0404,-2.7528,-46.5214
1.41,-0.0247,-9.8347,4.9651,-5.2459,7.0454,-2.7617,-46.5752
1.42,-0.0247,-9.8347,4.9651,-5.2558,7.0503,-2.7706,-46.6289
1.42,-0.0247,-9.8347,4.9651,-5.2656,7.0553,-2.7795,-46.6825
1.42,-0.0247,-9.8347,4.9651,-5.2754,7.0603,-2.7884,-46.7360
1.42,-0.0247,-9.8347,4.9650,-5.2853,7.0652,-2.7974,-46.7894
1.42,-0.0247,-9.8347,4.9650,-5.2951,7.0702,-2.8063,-46.8427
1.42,-0.0247,-9.8347,4.9650,-5.3050,7.0751,-2.8153,-46.8959
1.42,-0.0247,-9.8347,4.9650,-5.3148,7.0801,-2.8243,-46.9490
1.42,-0.0247,-9.8347,4.9649,-5.3246,7.0851,-2.8332,-47.0020
1.42,-0.0247,-9.8347,4.9649,-5.3345,7.0900,-2.8422,-47.0548
1.42,-0.0247,-9.8347,4.9649,-5.3443,7.0950,-2.8512,-47.1076
1.42,-0.0247,-9.8347,4.9649,-5.3541,7.1000,-2.8602,-47.1603
1.43,-0.0246,-9.8346,4.9648,-5.3640,7.1049,-2.8693,-47.2128
1.43,-0.0246,-9.8346,4.9648,-5.3738,7.1099,-2.8783,-47.2653
1.43,-0.0246,-9.8346,4.9648,-5.3836,7.1149,-2.8873,-47.3176
1.43,-0.0246,-9.8346,4.9648,-5.3935,7.1198,-2.8964,-47.3699
1.43,-0.0246,-9.8346,4.9648,-5.4033,7.1248,-2.9054,-47.4220
1.43,-0.0246,-9.8346,4.9647,-5.4131,7.1298,-2.9145,-47.4741
1.43,-0.0246,-9.8346,4.9647,-5.4230,7.1347,-2.9236,-47.5260
1.43,-0.0246,-9.8346,4.9647,-5.4328,7.1397,-2.9327,-47.5778
1.43,-0.0246,-9.8346,4.9647,-5.4426,7.1447,-2.9418,-47.6296
1.44,-0.0246,-9.8346,4.9646,-5.4525,7.1496,-2.9509,-47.6812
1.44,-0.0246,-9.8346,4.9646,-5.4623,7.1546,-2.9600,-47.7327
1.44,-0.0246,-9.8346,4.9646,-5.4721,7.1596,-2.9691,-47.7842
1.44,-0.0246,-9.8346,4.9646,-5.4820,7.1645,-2.9783,-47.8355
1.44,-0.0246,-9.8346,4.9645,-5.4918,7.1695,-2.9874,-47.8867
1.44,-0.0246,-9.8346,4.9645,-5.5016,7.1744,-2.9966,-47.9379
1.44,-0.0246,-9.8346,4.9645,-5.5115,7.1794,-3.0057,-47.9889
1.44,-0.0246,-9.8346,4.9645,-5.5213,7.1844,-3.0149,-48.0398
1.44,-0.0246,-9.8346,4.9644,-5.5311,7.1893,-3.0241,-48.0907
1.44,-0.0246,-9.8346,4.9644,-5.5410,7.1943,-3.0333,-48.1414
1.44,-0.0246,-9.8346,4.9644,-5.5508,7.1993,-3.0425,-48.1920
1.45,-0.0246,-9.8346,4.9644,-5.5606,7.2042,-3.0517,-48.2425
1.45,-0.0246,-9.8346,4.9643,-5.5705,7.2092,-3.0609,-48.2930
1.45,-0.0246,-9.8346,4.9643,-5.5803,7.2142,-3.0702,-48.3433
1.45,-0.0246,-9.8346,4.9643,-5.5901,7.2191,-3.0794,-48.3935
1.45,-0.0246,-9.8346,4.9643,-5.6000,7.2241,-3.0887,-48.4437
1.45,-0.0246,-9.8346,4.9642,-5.6098,7.2291,-3.0979,-48.4937
1.45,-0.0246,-9.8346,4.9642,-5.6196,7.2340,-3.1072,-48.5437
1.45,-0.0246,-9.8346,4.9642,-5.6295,7.2390,-3.1165,-48.5935
1.45,-0.0246,-9.8346,4.9642,-5.6393,7.2440,-3.1258,-48.6432
1.46,-0.0246,-9.8346,4.9641,-5.6492,7.2489,-3.1351,-48.6929
1.46,-0.0246,-9.8346,4.9641,-5.6590,7.2539,-3.1444,-48.7424
1.46,-0.0246,-9.8346,4.9641,-5.6688,7.2588,-3.1537,-48.7919
1.46,-0.0246,-9.8346,4.9641,-5.6787,7.2638,-3.1631,-48.8412
1.46,-0.0246,-9.8346,4.9640,-5.6885,7.2688,-3.1724,-48.8905
1.46,-0.0246,-9.8346,4.9640,-5.6983,7.2737,-3.1818,-48.9397
1.46,-0.0246,-9.8346,4.9640,-5.7082,7.2787,-3.1911,-48.9887
1.46,-0.0246,-9.8346,4.9640,-5.7180,7.2837,-3.2005,-49.0377
1.46,-0.0246,-9.8346,4.9640,-5.7278,7.2886,-3.2099,-49.0866
1.46,-0.0246,-9.8346,4.9639,-5.7377,7.2936,-3.2193,-49.1353
1.46,-0.0246,-9.8346,4.9639,-5.7475,7.2986,-3.2287,-49.1840
1.47,-0.0246,-9.8346,4.9639,-5.7573,7.3035,-3.2381,-49.2326
1.47,-0.0246,-9.8346,4.9639,-5.7672,7.3085,-3.2475,-49.2811
1.47,-0.0246,-9.8346,4.9638,-5.7770,7.3135,-3.2569,-49.3295
1.47,-0.0246,-9.8346,4.9638,-5.7868,7.3184,-3.2664,-49.3778
1.47,-0.0246,-9.8346,4.9638,-5.7967,7.3234,-3.2758,-49.4260
1.47,-0.0246,-9.8346,4.9638,-5.8065,7.3283,-3.2853,-49.4741
1.47,-0.0246,-9.8346,4.9637,-5.8163,7.3333,-3.2948,-49.5221
1.47,-0.0246,-9.8346,4.9637,-5.8262,7.3383,-3.3043,-49.5701
1.47,-0.0246,-9.8346,4.9637,-5.8360,7.3432,-3.3137,-49.6179
1.48,-0.0246,-9.8346,4.9637,-5.8458,7.3482,-3.3232,-49.6657
1.48,-0.0246,-9.8346,4.9636,-5.8557,7.3532,-3.3328,-49.7133
1.48,-0.0246,-9.8346,4.9636,-5.8655,7.3581,-3.3423,-49.7609
1.48,-0.0246,-9.8346,4.9636,-5.8753,7.3631,-3.3518,-49.8083
1.48,-0.0246,-9.8346,4.9636,-5.8852,7.3681,-3.3613,-49.8557
1.48,-0.0246,-9.8346,4.9635,-5.8950,7.3730,-3.3709,-49.9030
1.48,-0.0246,-9.8346,4.9635,-5.9048,7.3780,-3.3805,-49.9501
1.48,-0.0246,-9.8346,4.9635,-5.9147,7.3829,-3.3900,-49.9972
1.48,-0.0246,-9.8346,4.9635,-5.9245,7.3879,-3.3996,-50.0442
1.48,-0.0246,-9.8346,4.9634,-5.9343,7.3929,-3.4092,-50.0912
1.48,-0.0246,-9.8346,4.9634,-5.9442,7.3978,-3.4188,-50.1380
1.49,-0.0246,-9.8346,4.9634,-5.9540,7.4028,-3.4284,-50.1847
1.49,-0.0246,-9.8346,4.9634,-5.9638,7.4078,-3.4380,-50.2313
1.49,-0.0246,-9.8346,4.9633,-5.9737,7.4127,-3.4476,-50.2779
1.49,-0.0246,-9.8346,4.9633,-5.9835,7.4177,-3.4573,-50.3243
1.49,-0.0246,-9.8346,4.9633,-5.9934,7.4227,-3.4669,-50.3707
1.49,-0.0246,-9.8346,4.9633,-6.0032,7.4276,-3.4766,-50.4170
1.49,-0.0246,-9.8346,4.9632,-6.0130,7.4326,-3.4863,-50.4632
1.49,-0.0246,-9.8346,4.9632,-6.0229,7.4375,-3.4959,-50.5093
1.49,-0.0246,-9.8346,4.9632,-6.0327,7.4425,-3.5056,-50.5553
1.50,-0.0246,-9.8346,4.9632,-6.0425,7.4475,-3.5153,-50.6012
1.50,-0.0246,-9.8346,4.9631,-6.0524,7.4524,-3.5250,-50.6470
1.50,-0.0246,-9.8346,4.9631,-6.0622,7.4574,-3.5348,-50.6928
1.50,-0.0246,-9.8346,4.9631,-6.0720,7.4624,-3.5445,-50.7384
1.50,-0.0246,-9.8346,4.9631,-6.0819,7.4673,-3.5542,-50.7840
1.50,-0.0246,-9.8346,4.9631,-6.0917,7.4723,-3.5640,-50.8295
1.50,-0.0246,-9.8346,4.9630,-6.1015,7.4773,-3.5737,-50.8748
1.50,-0.0246,-9.8346,4.9630,-6.1114,7.4822,-3.5835,-50.9201
1.50,-0.0246,-9.8346,4.9630,-6.1212,7.4872,-3.5933,-50.9654
1.50,-0.0246,-9.8346,4.9630,-6.1310,7.4921,-3.6030,-51.0105
1.50,-0.0246,-9.8346,4.9629,-6.1409,7.4971,-3.6128,-51.0555
1.51,-0.0246,-9.8346,4.9629,-6.1507,7.5021,-3.6226,-51.1005
1.51,-0.0246,-9.8346,4.9629,-6.1605,7.5070,-3.6325,-51.1453
1.51,-0.0246,-9.8346,4.9629,-6.1704,7.5120,-3.6423,-51.1901
1.51,-0.0246,-9.8346,4.9628,-6.1802,7.5170,-3.6521,-51.2348
1.51,-0.0246,-9.8346,4.9628,-6.1900,7.5219,-3.6620,-51.2794
1.51,-0.0246,-9.8346,4.9628,-6.1999,7.5269,-3.6718,-51.3239
1.51,-0.0246,-9.8346,4.9628,-6.2097,7.5318,-3.6817,-51.3684
1.51,-0.0246,-9.8346,4.9627,-6.2195,7.5368,-3.6916,-51.4127
1.51,-0.0246,-9.8346,4.9627,-6.2294,7.5418,-3.7014,-51.4570
1.52,-0.0246,-9.8346,4.9627,-6.2392,7.5467,-3.7113,-51.5011
1.52,-0.0246,-9.8346,4.9627,-6.2490,7.5517,-3.7212,-51.5452
1.52,-0.0246,-9.8346,4.9626,-6.2589,7.5567,-3.7312,-51.5892
1.52,-0.0246,-9.8346,4.9626,-6.2687,7.5616,-3.7411,-51.6332
1.52,-0.0246,-9.8346,4.9626,-6.2785,7.5666,-3.7510,-51.6770
1.52,-0.0246,-9.8346,4.9626,-6.2884,7.5716,-3.7610,-51.7207
1.52,-0.0246,-9.8346,4.9625,-6.2982,7.5765,-3.7709,-51.7644
1.52,-0.0246,-9.8346,4.9625,-6.3080,7.5815,-3.7809,-51.8080
1.52,-0.0246,-9.8346,4.9625,-6.3179,7.5864,-3.7909,-51.8515
1.52,-0.0246,-9.8346,4.9625,-6.3277,7.5914,-3.8008,-51.8949
1.52,-0.0246,-9.8346,4.9624,-6.3376,7.5964,-3.8108,-51.9383
1.53,-0.0246,-9.8346,4.9624,-6.3474,7.6013,-3.8208,-51.9815
1.53,-0.0246,-9.8346,4.9624,-6.3572,7.6063,-3.8308,-52.0247
1.53,-0.0246,-9.8346,4.9624,-6.3671,7.6113,-3.8409,-52.0678
1.53,-0.0246,-9.8346,4.9623,-6.3769,7.6162,-3.8509,-52.1108
1.53,-0.0246,-9.8346,4.9623,-6.3867,7.6212,-3.8609,-52.1537
1.53,-0.0246,-9.8346,4.9623,-6.3966,7.6261,-3.8710,-52.1965
1.53,-0.0246,-9.8346,4.9623,-6.4064,7.6311,-3.8810,-52.2393
1.53,-0.0246,-9.8346,4.9623,-6.4162,7.6361,-3.8911,-52.2820
1.53,-0.0246,-9.8346,4.9622,-6.4261,7.6410,-3.9012,-52.3245
1.54,-0.0246,-9.8346,4.9622,-6.4359,7.6460,-3.9113,-52.3671
1.54,-0.0246,-9.8346,4.9622,-6.4457,7.6510,-3.9214,-52.4095
1.54,-0.0246,-9.8346,4.9622,-6.4556,7.6559,-3.9315,-52.4518
1.54,-0.0246,-9.8346,4.9621,-6.4654,7.6609,-3.9416,-52.4941
1.54,-0.0246,-9.8346,4.9621,-6.4752,7.6658,-3.9518,-52.5363
1.54,-0.0246,-9.8346,4.9621,-6.4851,7.6708,-3.9619,-52.5784
1.54,-0.0246,-9.8346,4.9621,-6.4949,7.6758,-3.9720,-52.6204
1.54,-0.0246,-9.8346,4.9620,-6.5047,7.6807,-3.9822,-52.6624
1.54,-0.0246,-9.8346,4.9620,-6.5146,7.6857,-3.9924,-52.7042
1.54,-0.0246,-9.8346,4.9620,-6.5244,7.6907,-4.0026,-52.7460
1.54,-0.0246,-9.8346,4.9620,-6.5342,7.6956,-4.0127,-52.7877
1.55,-0.0246,-9.8346,4.9619,-6.5441,7.7006,-4.0229,-52.8294
1.55,-0.0246,-9.8346,4.9619,-6.5539,7.7055,-4.0332,-52.8709
1.55,-0.0246,-9.8346,4.9619,-6.5637,7.7105,-4.0434,-52.9124
1.55,-0.0246,-9.8346,4.9619,-6.5736,7.7155,-4.0536,-52.9538
1.55,-0.0246,-9.8346,4.9618,-6.5834,7.7204,-4.0638,-52.9951
1.55,-0.0246,-9.8346,4.9618,-6.5932,7.7254,-4.0741,-53.0363
1.55,-0.0246,-9.8346,4.9618,-6.6031,7.7303,-4.0843,-53.0775
1.55,-0.0246,-9.8346,4.9618,-6.6129,7.7353,-4.0946,-53.1185
1.55,-0.0246,-9.8346,4.9617,-6.6227,7.7403,-4.1049,-53.1595
1.56,-0.0246,-9.8346,4.9617,-6.6326,7.7452,-4.1152,-53.2005
1.56,-0.0246,-9.8346,4.9617,-6.6424,7.7502,-4.1255,-53.2413
1.56,-0.0246,-9.8346,4.9617,-6.6522,7.7552,-4.1358,-53.2821
1.56,-0.0246,-9.8346,4.9616,-6.6621,7.7601,-4.1461,-53.3228
1.56,-0.0246,-9.8346,4.9616,-6.6719,7.7651,-4.1564,-53.3634
1.56,-0.0246,-9.8346,4.9616,-6.6817,7.7700,-4.1668,-53.4039
1.56,-0.0246,-9.8346,4.9616,-6.6916,7.7750,-4.1771,-53.4444
1.56,-0.0246,-9.8346,4.9615,-6.7014,7.7800,-4.1875,-53.4848
1.56,-0.0246,-9.8346,4.9615,-6.7113,7.7849,-4.1978,-53.5251
1.56,-0.0246,-9.8346,4.9615,-6.7211,7.7899,-4.2082,-53.5653
1.56,-0.0246,-9.8346,4.9615,-6.7309,7.7949,-4.2186,-53.6054
1.57,-0.0246,-9.8346,4.9615,-6.7408,7.7998,-4.2290,-53.6455
1.57,-0.0246,-9.8346,4.9614,-6.7506,7.8048,-4.2394,-53.6855
1.57,-0.0246,-9.8346,4.9614,-6.7604,7.8097,-4.2498,-53.7255
1.57,-0.0246,-9.8346,4.9614,-6.7703,7.8147,-4.2602,-53.7653
1.57,-0.0246,-9.8346,4.9614,-6.7801,7.8197,-4.2707,-53.8051
1.57,-0.0246,-9.8346,4.9613,-6.7899,7.8246,-4.2811,-53.8448
1.57,-0.0246,-9.8346,4.9613,-6.7998,7.8296,-4.2916,-53.8844
1.57,-0.0246,-9.8346,4.9613,-6.8096,7.8345,-4.3020,-53.9240
1.57,-0.0246,-9.8346,4.9613,-6.8194,7.8395,-4.3125,-53.9634
1.58,-0.0246,-9.8346,4.9612,-6.8293,7.8445,-4.3230,-54.0028
1.58,-0.0246,-9.8346,4.9612,-6.8391,7.8494,-4.3335,-54.0422
1.58,-0.0246,-9.8346,4.9612,-6.8489,7.8544,-4.3440,-54.0814
1.58,-0.0246,-9.8346,4.9612,-6.8588,7.8594,-4.3545,-54.1206
1.58,-0.0246,-9.8346,4.9611,-6.8686,7.8643,-4.3650,-54.1597
1.58,-0.0246,-9.8346,4.9611,-6.8784,7.8693,-4.3756,-54.1987
1.58,-0.0246,-9.8346,4.9611,-6.8883,7.8742,-4.3861,-54.2377
1.58,-0.0246,-9.8346,4.9611,-6.8981,7.8792,-4.3967,-54.2766
1.58,-0.0246,-9.8346,4.9610,-6.9079,7.8842,-4.4072,-54.3154
1.58,-0.0246,-9.8346,4.9610,-6.9178,7.8891,-4.4178,-54.3542
1.58,-0.0246,-9.8346,4.9610,-6.9276,7.8941,-4.4284,-54.3928
1.59,-0.0246,-9.8346,4.9610,-6.9374,7.8990,-4.4390,-54.4314
1.59,-0.0246,-9.8346,4.9609,-6.9473,7.9040,-4.4496,-54.4699
1.59,-0.0246,-9.8346,4.9609,-6.9571,7.9090,-4.4602,-54.5084
1.59,-0.0246,-9.8346,4.9609,-6.9669,7.9139,-4.4708,-54.5468
1.59,-0.0246,-9.8346,4.9609,-6.9768,7.9189,-4.4814,-54.5851
1.59,-0.0246,-9.8346,4.9608,-6.9866,7.9239,-4.4921,-54.6233
1.59,-0.0246,-9.8346,4.9608,-6.9964,7.9288,-4.5027,-54.6615
1.59,-0.0246,-9.8346,4.9608,-7.0063,7.9338,-4.5134,-54.6996
1.59,-0.0246,-9.8346,4.9608,-7.0161,7.9387,-4.5241,-54.7376
1.60,-0.0246,-9.8346,4.9607,-7.0259,7.9437,-4.5347,-54.7756
1.60,-0.0246,-9.8346,4.9607,-7.0358,7.9487,-4.5454,-54.8135
1.60,-0.0246,-9.8346,4.9607,-7.0456,7.9536,-4.5561,-54.8513
1.60,-0.0246,-9.8346,4.9607,-7.0555,7.9586,-4.5668,-54.8890
1.60,-0.0246,-9.8346,4.9607,-7.0653,7.9635,-4.5776,-54.9267
1.60,-0.0246,-9.8346,4.9606,-7.0751,7.9685,-4.5883,-54.9643
1.60,-0.0246,-9.8346,4.9606,-7.0850,7.9735,-4.5990,-55.0018
1.60,-0.0246,-9.8346,4.9606,-7.0948,7.9784,-4.6098,-55.0393
1.60,-0.0246,-9.8346,4.9606,-7.1046,7.9834,-4.6205,-55.0767
1.60,-0.0246,-9.8346,4.9605,-7.1145,7.9883,-4.6313,-55.1140
1.60,-0.0246,-9.8346,4.9605,-7.1243,7.9933,-4.6421,-55.1512
1.61,-0.0246,-9.8346,4.9605,-7.1341,7.9983,-4.6529,-55.1884
1.61,-0.0246,-9.8346,4.9605,-7.1440,8.0032,-4.6637,-55.2255
1.61,-0.0246,-9.8346,4.9604,-7.1538,8.0082,-4.6745,-55.2626
1.61,-0.0246,-9.8346,4.9604,-7.1636,8.0131,-4.6853,-55.2996
1.61,-0.0246,-9.8346,4.9604,-7.1735,8.0181,-4.6961,-55.3365
1.61,-0.0246,-9.8346,4.9604,-7.1833,8.0231,-4.7070,-55.3733
1.61,-0.0246,-9.8346,4.9603,-7.1931,8.0280,-4.7178,-55.4101
1.61,-0.0246,-9.8346,4.9603,-7.2030,8.0330,-4.7287,-55.4468
1.61,-0.0246,-9.8346,4.9603,-7.2128,8.0380,-4.7396,-55.4834
1.62,-0.0246,-9.8346,4.9603,-7.2226,8.0429,-4.7504,-55.5200
1.62,-0.0246,-9.8346,4.9602,-7.2325,8.0479,-4.7613,-55.5565
1.62,-0.0246,-9.8346,4.9602,-7.2423,8.0528,-4.7722,-55.5930
1.62,-0.0246,-9.8346,4.9602,-7.2521,8.0578,-4.7831,-55.6293
1.62,-0.0246,-9.8346,4.9602,-7.2620,8.0628,-4.7940,-55.6656
1.62,-0.0246,-9.8346,4.9601,-7.2718,8.0677,-4.8050,-55.7019
1.62,-0.0246,-9.8346,4.9601,-7.2816,8.0727,-4.8159,-55.7380
1.62,-0.0246,-9.8346,4.9601,-7.2915,8.0776,-4.8268,-55.7741
1.62,-0.0246,-9.8346,4.9601,-7.3013,8.0826,-4.8378,-55.8102
1.62,-0.0246,-9.8346,4.9600,-7.3111,8.0876,-4.8488,-55.8461
1.62,-0.0246,-9.8346,4.9600,-7.3210,8.0925,-4.8597,-55.8820
1.63,-0.0246,-9.8346,4.9600,-7.3308,8.0975,-4.8707,-55.9179
1.63,-0.0246,-9.8346,4.9600,-7.3406,8.1024,-4.8817,-55.9536
1.63,-0.0246,-9.8346,4.9599,-7.3505,8.1074,-4.8927,-55.9893
1.63,-0.0246,-9.8346,4.9599,-7.3603,8.1124,-4.9038,-56.0250
1.63,-0.0246,-9.8346,4.9599,-7.3701,8.1173,-4.9148,-56.0606
1.63,-0.0246,-9.8346,4.9599,-7.3800,8.1223,-4.9258,-56.0961
1.63,-0.0246,-9.8346,4.9599,-7.3898,8.1272,-4.9369,-56.1315
1.63,-0.0246,-9.8346,4.9598,-7.3996,8.1322,-4.9479,-56.1669
1.63,-0.0246,-9.8346,4.9598,-7.4095,8.1372,-4.9590,-56.2022
1.64,-0.0246,-9.8346,4.9598,-7.4193,8.1421,-4.9700,-56.2375
1.64,-0.0246,-9.8346,4.9598,-7.4292,8.1471,-4.9811,-56.2726
1.64,-0.0246,-9.8346,4.9597,-7.4390,8.1520,-4.9922,-56.3078
1.64,-0.0246,-9.8346,4.9597,-7.4488,8.1570,-5.0033,-56.3428
1.64,-0.0246,-9.8346,4.9597,-7.4587,8.1620,-5.0144,-56.3778
1.64,-0.0246,-9.8346,4.9597,-7.4685,8.1669,-5.0256,-56.4127
1.64,-0.0246,-9.8346,4.9596,-7.4783,8.1719,-5.0367,-56.4476
1.64,-0.0246,-9.8346,4.9596,-7.4882,8.1768,-5.0478,-56.4824
1.64,-0.0246,-9.8346,4.9596,-7.4980,8.1818,-5.0590,-56.5171
1.64,-0.0246,-9.8346,4.9596,-7.5078,8.1868,-5.0702,-56.5518
1.64,-0.0246,-9.8346,4.9595,-7.5177,8.1917,-5.0813,-56.5864
1.65,-0.0246,-9.8346,4.9595,-7.5275,8.1967,-5.0925,-56.6210
1.65,-0.0246,-9.8346,4.9595,-7.5373,8.2016,-5.1037,-56.6555
1.65,-0.0246,-9.8346,4.9595,-7.5472,8.2066,-5.1149,-56.6899
1.65,-0.0246,-9.8346,4.9594,-7.5570,8.2116,-5.1261,-56.7243
1.65,-0.0246,-9.8346,4.9594,-7.5668,8.2165,-5.1373,-56.7585
1.65,-0.0246,-9.8346,4.9594,-7.5767,8.2215,-5.1486,-56.7928
1.65,-0.0246,-9.8346,4.9594,-7.5865,8.2264,-5.1598,-56.8270
1.65,-0.0246,-9.8346,4.9593,-7.5963,8.2314,-5.1711,-56.8611
1.65,-0.0246,-9.8346,4.9593,-7.6062,8.2364,-5.1823,-56.8951
1.66,-0.0246,-9.8346,4.9593,-7.6160,8.2413,-5.1936,-56.9291
1.66,-0.0246,-9.8346,4.9593,-7.6258,8.2463,-5.2049,-56.9630
1.66,-0.0246,-9.8346,4.9592,-7.6357,8.2512,-5.2162,-56.9969
1.66,-0.0246,-9.8346,4.9592,-7.6455,8.2562,-5.2275,-57.0307
1.66,-0.0246,-9.8346,4.9592,-7.6553,8.2612,-5.2388,-57.0645
1.66,-0.0246,-9.8346,4.9592,-7.6652,8.2661,-5.2501,-57.0981
1.66,-0.0246,-9.8346,4.9592,-7.6750,8.2711,-5.2614,-57.1318
1.66,-0.0246,-9.8346,4.9591,-7.6848,8.2760,-5.2728,-57.1653
1.66,-0.0246,-9.8346,4.9591,-7.6947,8.2810,-5.2841,-57.1988
1.66,-0.0246,-9.8346,4.9591,-7.7045,8.2860,-5.2955,-57.2323
1.66,-0.0246,-9.8346,4.9591,-7.7143,8.2909,-5.3069,-57.2656
1.67,-0.0246,-9.8346,4.9590,-7.7242,8.2959,-5.3182,-57.2990
1.67,-0.0246,-9.8346,4.9590,-7.7340,8.3008,-5.3296,-57.3322
1.67,-0.0246,-9.8346,4.9590,-7.7438,8.3058,-5.3410,-57.3654
1.67,-0.0246,-9.8346,4.9590,-7.7537,8.3107,-5.3524,-57.3986
1.67,-0.0246,-9.8346,4.9589,-7.7635,8.3157,-5.3638,-57.4317
1.67,-0.0246,-9.8346,4.9589,-7.7733,8.3207,-5.3753,-57.4647
1.67,-0.0246,-9.8346,4.9589,-7.7832,8.3256,-5.3867,-57.4976
1.67,-0.0246,-9.8346,4.9589,-7.7930,8.3306,-5.3982,-57.5305
1.67,-0.0246,-9.8346,4.9588,-7.8029,8.3355,-5.4096,-57.5634
1.68,-0.0246,-9.8346,4.9588,-7.8127,8.3405,-5.4211,-57.5962
1.68,-0.0246,-9.8346,4.9588,-7.8225,8.3455,-5.4326,-57.6289
1.68,-0.0246,-9.8346,4.9588,-7.8324,8.3504,-5.4441,-57.6616
1.68,-0.0246,-9.8346,4.9587,-7.8422,8.3554,-5.4555,-57.6942
1.68,-0.0246,-9.8346,4.9587,-7.8520,8.3603,-5.4671,-57.7267
1.68,-0.0246,-9.8346,4.9587,-7.8619,8.3653,-5.4786,-57.7592
1.68,-0.0246,-9.8346,4.9587,-7.8717,8.3703,-5.4901,-57.7917
1.68,-0.0246,-9.8346,4.9586,-7.8815,8.3752,-5.5016,-57.8240
1.68,-0.0246,-9.8346,4.9586,-7.8914,8.3802,-5.5132,-57.8564
1.68,-0.0246,-9.8346,4.9586,-7.9012,8.3851,-5.5247,-57.8886
1.68,-0.0246,-9.8346,4.9586,-7.9110,8.3901,-5.5363,-57.9208
1.69,-0.0246,-9.8346,4.9585,-7.9209,8.3951,-5.5479,-57.9530
1.69,-0.0246,-9.8346,4.9585,-7.9307,8.4000,-5.5595,-57.9851
1.69,-0.0246,-9.8346,4.9585,-7.9405,8.4050,-5.5711,-58.0171
1.69,-0.0246,-9.8346,4.9585,-7.9504,8.4099,-5.5827,-58.0491
1.69,-0.0246,-9.8346,4.9584,-7.9602,8.4149,-5.5943,-58.0810
1.69,-0.0246,-9.8346,4.9584,-7.9700,8.4198,-5.6059,-58.1129
1.69,-0.0246,-9.8346,4.9584,-7.9799,8.4248,-5.6175,-58.1447
1.69,-0.0246,-9.8346,4.9584,-7.9897,8.4298,-5.6292,-58.1764
1.69,-0.0246,-9.8346,4.9584,-7.9995,8.4347,-5.6408,-58.2081
1.70,-0.0246,-9.8346,4.9583,-8.0094,8.4397,-5.6525,-58.2398
1.70,-0.0246,-9.8346,4.9583,-8.0192,8.4446,-5.6642,-58.2713
1.70,-0.0246,-9.8346,4.9583,-8.0290,8.4496,-5.6759,-58.3029
1.70,-0.0246,-9.8346,4.9583,-8.0389,8.4546,-5.6876,-58.3343
1.70,-0.0246,-9.8346,4.9582,-8.0487,8.4595,-5.6993,-58.3657
1.70,-0.0246,-9.8346,4.9582,-8.0585,8.4645,-5.7110,-58.3971
1.70,-0.0246,-9.8346,4.9582,-8.0684,8.4694,-5.7227,-58.4284
1.70,-0.0246,-9.8346,4.9582,-8.0782,8.4744,-5.7344,-58.4597
1.70,-0.0246,-9.8346,4.9581,-8.0880,8.4794,-5.7462,-58.4909
1.70,-0.0246,-9.8346,4.9581,-8.0979,8.4843,-5.7579,-58.5220
1.70,-0.0246,-9.8346,4.9581,-8.1077,8.4893,-5.7697,-58.5531
1.71,-0.0246,-9.8346,4.9581,-8.1175,8.4942,-5.7815,-58.5841
1.71,-0.0246,-9.8346,4.9580,-8.1274,8.4992,-5.7932,-58.6151
1.71,-0.0246,-9.8346,4.9580,-8.1372,8.5041,-5.8050,-58.6460
1.71,-0.0246,-9.8346,4.9580,-8.1470,8.5091,-5.8168,-58.6769
1.71,-0.0246,-9.8346,4.9580,-8.1569,8.5141,-5.8287,-58.7077
1.71,-0.0246,-9.8346,4.9579,-8.1667,8.5190,-5.8405,-58.7384
1.71,-0.0246,-9.8346,4.9579,-8.1765,8.5240,-5.8523,-58.7691
1.71,-0.0246,-9.8346,4.9579,-8.1864,8.5289,-5.8641,-58.7998
1.71,-0.0246,-9.8346,4.9579,-8.1962,8.5339,-5.8760,-58.8304
1.72,-0.0246,-9.8346,4.9578,-8.2061,8.5389,-5.8879,-58.8609
1.72,-0.0246,-9.8346,4.9578,-8.2159,8.5438,-5.8997,-58.8914
1.72,-0.0246,-9.8346,4.9578,-8.2257,8.5488,-5.9116,-58.9218
1.72,-0.0246,-9.8346,4.9578,-8.2356,8.5537,-5.9235,-58.9522
1.72,-0.0246,-9.8346,4.9577,-8.2454,8.5587,-5.9354,-58.9825
1.72,-0.0246,-9.8346,4.9577,-8.2552,8.5636,-5.9473,-59.0128
1.72,-0.0246,-9.8346,4.9577,-8.2651,8.5686,-5.9592,-59.0430
1.72,-0.0246,-9.8346,4.9577,-8.2749,8.5736,-5.9712,-59.0732
1.72,-0.0246,-9.8346,4.9577,-8.2847,8.5785,-5.9831,-59.1033
1.72,-0.0246,-9.8346,4.9576,-8.2946,8.5835,-5.9950,-59.1334
1.72,-0.0246,-9.8346,4.9576,-8.3044,8.5884,-6.0070,-59.1634
1.73,-0.0246,-9.8346,4.9576,-8.3142,8.5934,-6.0190,-59.1934
1.73,-0.0246,-9.8346,4.9576,-8.3241,8.5983,-6.0310,-59.2233
1.73,-0.0246,-9.8346,4.9575,-8.3339,8.6033,-6.0429,-59.2531
1.73,-0.0246,-9.8346,4.9575,-8.3437,8.6083,-6.0549,-59.2829
1.73,-0.0246,-9.8346,4.9575,-8.3536,8.6132,-6.0670,-59.3127
1.73,-0.0246,-9.8346,4.9575,-8.3634,8.6182,-6.0790,-59.3424
1.73,-0.0246,-9.8346,4.9574,-8.3732,8.6231,-6.0910,-59.3720
1.73,-0.0246,-9.8346,4.9574,-8.3831,8.6281,-6.1030,-59.4016
1.73,-0.0246,-9.8346,4.9574,-8.3929,8.6331,-6.1151,-59.4312
1.74,-0.0246,-9.8346,4.9574,-8.4027,8.6380,-6.1271,-59.4607
1.74,-0.0246,-9.8346,4.9573,-8.4126,8.6430,-6.1392,-59.4901
1.74,-0.0246,-9.8346,4.9573,-8.4224,8.6479,-6.1513,-59.5195
1.74,-0.0246,-9.8346,4.9573,-8.4322,8.6529,-6.1634,-59.5488
1.74,-0.0246,-9.8346,4.9573,-8.4421,8.6578,-6.1755,-59.5781
1.74,-0.0246,-9.8346,4.9572,-8.4519,8.6628,-6.1876,-59.6074
1.74,-0.0246,-9.8346,4.9572,-8.4617,8.6678,-6.1997,-59.6366
1.74,-0.0246,-9.8346,4.9572,-8.4716,8.6727,-6.2118,-59.6657
1.74,-0.0246,-9.8346,4.9572,-8.4814,8.6777,-6.2240,-59.6948
1.74,-0.0246,-9.8346,4.9571,-8.4912,8.6826,-6.2361,-59.7238
1.74,-0.0246,-9.8346,4.9571,-8.5011,8.6876,-6.2483,-59.7528
1.75,-0.0246,-9.8346,4.9571,-8.5109,8.6925,-6.2604,-59.7818
1.75,-0.0246,-9.8346,4.9571,-8.5207,8.6975,-6.2726,-59.8107
1.75,-0.0246,-9.8346,4.9570,-8.5306,8.7025,-6.2848,-59.8395
1.75,-0.0246,-9.8346,4.9570,-8.5404,8.7074,-6.2970,-59.8683
1.75,-0.0246,-9.8346,4.9570,-8.5502,8.7124,-6.3092,-59.8970
1.75,-0.0246,-9.8346,4.9570,-8.5601,8.7173,-6.3214,-59.9257
1.75,-0.0246,-9.8346,4.9570,-8.5699,8.7223,-6.3336,-59.9544
1.75,-0.0246,-9.8346,4.9569,-8.5797,8.7272,-6.3459,-59.9829
1.75,-0.0246,-9.8346,4.9569,-8.5896,8.7322,-6.3581,-60.0115
1.76,-0.0246,-9.8346,4.9569,-8.5994,8.7372,-6.3704,-60.0400
1.76,-0.0246,-9.8346,4.9569,-8.6093,8.7421,-6.3826,-60.0684
1.76,-0.0246,-9.8346,4.9568,-8.6191,8.7471,-6.3949,-60.0968
1.76,-0.0246,-9.8346,4.9568,-8.6289,8.7520,-6.4072,-60.1252
1.76,-0.0246,-9.8346,4.9568,-8.6388,8.7570,-6.4195,-60.1535
1.76,-0.0246,-9.8346,4.9568,-8.6486,8.7619,-6.4318,-60.1817
1.76,-0.0246,-9.8346,4.9567,-8.6584,8.7669,-6.4441,-60.2099
1.76,-0.0246,-9.8346,4.9567,-8.6683,8.7719,-6.4564,-60.2381
1.76,-0.0246,-9.8346,4.9567,-8.6781,8.7768,-6.4688,-60.2662
1.76,-0.0246,-9.8346,4.9567,-8.6879,8.7818,-6.4811,-60.2942
1.76,-0.0246,-9.8346,4.9566,-8.6978,8.7867,-6.4934,-60.3223
1.77,-0.0246,-9.8346,4.9566,-8.7076,8.7917,-6.5058,-60.3502
1.77,-0.0246,-9.8346,4.9566,-8.7174,8.7966,-6.5182,-60.3781
1.77,-0.0246,-9.8346,4.9566,-8.7273,8.8016,-6.5306,-60.4060
1.77,-0.0246,-9.8346,4.9565,-8.7371,8.8066,-6.5430,-60.4338
1.77,-0.0246,-9.8346,4.9565,-8.7469,8.8115,-6.5554,-60.4616
1.77,-0.0246,-9.8346,4.9565,-8.7568,8.8165,-6.5678,-60.4893
1.77,-0.0246,-9.8346,4.9565,-8.7666,8.8214,-6.5802,-60.5170
1.77,-0.0246,-9.8346,4.9564,-8.7764,8.8264,-6.5926,-60.5446
1.77,-0.0246,-9.8346,4.9564,-8.7863,8.8313,-6.6051,-60.5722
1.78,-0.0246,-9.8346,4.9564,-8.7961,8.8363,-6.6175,-60.5998
1.78,-0.0246,-9.8346,4.9564,-8.8059,8.8413,-6.6300,-60.6273
1.78,-0.0246,-9.8346,4.9563,-8.8158,8.8462,-6.6424,-60.6547
1.78,-0.0246,-9.8346,4.9563,-8.8256,8.8512,-6.6549,-60.6821
1.78,-0.0246,-9.8346,4.9563,-8.8354,8.8561,-6.6674,-60.7095
1.78,-0.0246,-9.8346,4.9563,-8.8453,8.8611,-6.6799,-60.7368
1.78,-0.0246,-9.8346,4.9563,-8.8551,8.8660,-6.6924,-60.7640
1.78,-0.0246,-9.8346,4.9562,-8.8649,8.8710,-6.7049,-60.7912
1.78,-0.0246,-9.8346,4.9562,-8.8748,8.8760,-6.7175,-60.8184
1.78,-0.0246,-9.8346,4.9562,-8.8846,8.8809,-6.7300,-60.8455
1.78,-0.0246,-9.8346,4.9562,-8.8944,8.8859,-6.7426,-60.8726
1.79,-0.0246,-9.8346,4.9561,-8.9043,8.8908,-6.7551,-60.8996
1.79,-0.0246,-9.8346,4.9561,-8.9141,8.8958,-6.7677,-60.9266
1.79,-0.0246,-9.8346,4.9561,-8.9239,8.9007,-6.7803,-60.9536
1.79,-0.0246,-9.8346,4.9561,-8.9338,8.9057,-6.7929,-60.9805
1.79,-0.0246,-9.8346,4.9560,-8.9436,8.9106,-6.8055,-61.0073
1.79,-0.0246,-9.8346,4.9560,-8.9534,8.9156,-6.8181,-61.0341
1.79,-0.0246,-9.8346,4.9560,-8.9633,8.9206,-6.8307,-61.0609
1.79,-0.0246,-9.8346,4.9560,-8.9731,8.9255,-6.8433,-61.0876
1.79,-0.0246,-9.8346,4.9559,-8.9829,8.9305,-6.8560,-61.1143
1.80,-0.0246,-9.8346,4.9559,-8.9928,8.9354,-6.8686,-61.1409
1.80,-0.0246,-9.8346,4.9559,-9.0026,8.9404,-6.8813,-61.1675
1.80,-0.0246,-9.8346,4.9559,-9.0125,8.9453,-6.8939,-61.1940
1.80,-0.0246,-9.8346,4.9558,-9.0223,8.9503,-6.9066,-61.2205
1.80,-0.0246,-9.8346,4.9558,-9.0321,8.9553,-6.9193,-61.2470
1.80,-0.0246,-9.8346,4.9558,-9.0420,8.9602,-6.9320,-61.2734
1.80,-0.0246,-9.8346,4.9558,-9.0518,8.9652,-6.9447,-61.2997
1.80,-0.0246,-9.8346,4.9557,-9.0616,8.9701,-6.9574,-61.3260
1.80,-0.0246,-9.8346,4.9557,-9.0715,8.9751,-6.9701,-61.3523
1.80,-0.0246,-9.8346,4.9557,-9.0813,8.9800,-6.9829,-61.3785
1.80,-0.0246,-9.8346,4.9557,-9.0911,8.9850,-6.9956,-61.4047
1.81,-0.0246,-9.8346,4.9556,-9.1010,8.9899,-7.0084,-61.4309
1.81,-0.0246,-9.8346,4.9556,-9.1108,8.9949,-7.0211,-61.4570
1.81,-0.0246,-9.8346,4.9556,-9.1206,8.9999,-7.0339,-61.4830
1.81,-0.0246,-9.8346,4.9556,-9.1305,9.0048,-7.0467,-61.5090
1.81,-0.0246,-9.8346,4.9556,-9.1403,9.0098,-7.0595,-61.5350
1.81,-0.0246,-9.8346,4.9555,-9.1501,9.0147,-7.0723,-61.5609
1.81,-0.0246,-9.8346,4.9555,-9.1600,9.0197,-7.0851,-61.5868
1.81,-0.0246,-9.8346,4.9555,-9.1698,9.0246,-7.0979,-61.6126
1.81,-0.0246,-9.8346,4.9555,-9.1796,9.0296,-7.1108,-61.6384
1.82,-0.0246,-9.8346,4.9554,-9.1895,9.0346,-7.1236,-61.6642
1.82,-0.0246,-9.8346,4.9554,-9.1993,9.0395,-7.1365,-61.6899
1.82,-0.0246,-9.8346,4.9554,-9.2091,9.0445,-7.1493,-61.7156
1.82,-0.0246,-9.8346,4.9554,-9.2190,9.0494,-7.1622,-61.7412
1.82,-0.0246,-9.8346,4.9553,-9.2288,9.0544,-7.1751,-61.7668
1.82,-0.0246,-9.8346,4.9553,-9.2386,9.0593,-7.1880,-61.7923
1.82,-0.0246,-9.8346,4.9553,-9.2485,9.0643,-7.2009,-61.8178
1.82,-0.0246,-9.8346,4.9553,-9.2583,9.0692,-7.2138,-61.8433
1.82,-0.0246,-9.8346,4.9552,-9.2681,9.0742,-7.2267,-61.8687
1.82,-0.0246,-9.8346,4.9552,-9.2780,9.0792,-7.2397,-61.8941
1.82,-0.0246,-9.8346,4.9552,-9.2878,9.0841,-7.2526,-61.9194
1.83,-0.0246,-9.8346,4.9552,-9.2976,9.0891,-7.2656,-61.9447
1.83,-0.0246,-9.8346,4.9551,-9.3075,9.0940,-7.2785,-61.9699
1.83,-0.0246,-9.8346,4.9551,-9.3173,9.0990,-7.2915,-61.9951
1.83,-0.0246,-9.8346,4.9551,-9.3271,9.1039,-7.3045,-62.0203
1.83,-0.0246,-9.8346,4.9551,-9.3370,9.1089,-7.3175,-62.0454
1.83,-0.0246,-9.8346,4.9550,-9.3468,9.1138,-7.3305,-62.0705
1.83,-0.0246,-9.8346,4.9550,-9.3566,9.1188,-7.3435,-62.0955
1.83,-0.0246,-9.8346,4.9550,-9.3665,9.1238,-7.3565,-62.1205
1.83,-0.0246,-9.8346,4.9550,-9.3763,9.1287,-7.3695,-62.1455
1.84,-0.0246,-9.8346,4.9549,-9.3861,9.1337,-7.3826,-62.1704
1.84,-0.0246,-9.8346,4.9549,-9.3960,9.1386,-7.3956,-62.1953
1.84,-0.0246,-9.8346,4.9549,-9.4058,9.1436,-7.4087,-62.2201
1.84,-0.0246,-9.8346,4.9549,-9.4157,9.1485,-7.4218,-62.2449
1.84,-0.0246,-9.8346,4.9549,-9.4255,9.1535,-7.4348,-62.2697
1.84,-0.0246,-9.8346,4.9548,-9.4353,9.1584,-7.4479,-62.2944
1.84,-0.0246,-9.8346,4.9548,-9.4452,9.1634,-7.4610,-62.3191
1.84,-0.0246,-9.8346,4.9548,-9.4550,9.1684,-7.4741,-62.3437
1.84,-0.0245,-9.8345,4.9548,-9.4648,9.1733,-7.4873,-62.3683
1.84,-0.0245,-9.8345,4.9547,-9.4747,9.1783,-7.5004,-62.3929
1.84,-0.0245,-9.8345,4.9547,-9.4845,9.1832,-7.5135,-62.4174
1.85,-0.0245,-9.8345,4.9547,-9.4943,9.1882,-7.5267,-62.4419
1.85,-0.0245,-9.8345,4.9547,-9.5042,9.1931,-7.5398,-62.4663
1.85,-0.0245,-9.8345,4.9546,-9.5140,9.1981,-7.5530,-62.4907
1.85,-0.0245,-9.8345,4.9546,-9.5238,9.2030,-7.5662,-62.5151
1.85,-0.0245,-9.8345,4.9546,-9.5337,9.2080,-7.5794,-62.5394
1.85,-0.0245,-9.8345,4.9546,-9.5435,9.2129,-7.5926,-62.5636
1.85,-0.0245,-9.8345,4.9545,-9.5533,9.2179,-7.6058,-62.5879
1.85,-0.0245,-9.8345,4.9545,-9.5632,9.2229,-7.6190,-62.6121
1.85,-0.0245,-9.8345,4.9545,-9.5730,9.2278,-7.6322,-62.6362
1.86,-0.0245,-9.8345,4.9545,-9.5828,9.2328,-7.6455,-62.6604
1.86,-0.0245,-9.8345,4.9544,-9.5927,9.2377,-7.6587,-62.6844
1.86,-0.0245,-9.8345,4.9544,-9.6025,9.2427,-7.6720,-62.7085
1.86,-0.0245,-9.8345,4.9544,-9.6123,9.2476,-7.6852,-62.7325
1.86,-0.0245,-9.8345,4.9544,-9.6222,9.2526,-7.6985,-62.7565
1.86,-0.0245,-9.8345,4.9543,-9.6320,9.2575,-7.7118,-62.7804
1.86,-0.0245,-9.8345,4.9543,-9.6418,9.2625,-7.7251,-62.8043
1.86,-0.0245,-9.8345,4.9543,-9.6517,9.2675,-7.7384,-62.8281
1.86,-0.0245,-9.8345,4.9543,-9.6615,9.2724,-7.7517,-62.8519
1.86,-0.0245,-9.8345,4.9542,-9.6713,9.2774,-7.7650,-62.8757
1.86,-0.0245,-9.8345,4.9542,-9.6812,9.2823,-7.7784,-62.8994
1.87,-0.0245,-9.8345,4.9542,-9.6910,9.2873,-7.7917,-62.9231
1.87,-0.0245,-9.8345,4.9542,-9.7008,9.2922,-7.8051,-62.9468
1.87,-0.0245,-9.8345,4.9542,-9.7107,9.2972,-7.8184,-62.9704
1.87,-0.0245,-9.8345,4.9541,-9.7205,9.3021,-7.8318,-62.9940
1.87,-0.0245,-9.8345,4.9541,-9.7303,9.3071,-7.8452,-63.0175
1.87,-0.0245,-9.8345,4.9541,-9.7402,9.3120,-7.8586,-63.0411
1.87,-0.0245,-9.8345,4.9541,-9.7500,9.3170,-7.8720,-63.0645
1.87,-0.0245,-9.8345,4.9540,-9.7598,9.3220,-7.8854,-63.0880
1.87,-0.0245,-9.8345,4.9540,-9.7697,9.3269,-7.8988,-63.1114
1.88,-0.0245,-9.8345,4.9540,-9.7795,9.3319,-7.9123,-63.1347
1.88,-0.0245,-9.8345,4.9540,-9.7893,9.3368,-7.9257,-63.1580
1.88,-0.0245,-9.8345,4.9539,-9.7992,9.3418,-7.9392,-63.1813
1.88,-0.0245,-9.8345,4.9539,-9.8090,9.3467,-7.9526,-63.2046
1.88,-0.0245,-9.8345,4.9539,-9.8188,9.3517,-7.9661,-63.2278
1.88,-0.0245,-9.8345,4.9539,-9.8287,9.3566,-7.9796,-63.2509
1.88,-0.0245,-9.8345,4.9538,-9.8385,9.3616,-7.9931,-63.2741
1.88,-0.0245,-9.8345,4.9538,-9.8484,9.3665,-8.0066,-63.2972
1.88,-0.0245,-9.8345,4.9538,-9.8582,9.3715,-8.0201,-63.3202
1.88,-0.0245,-9.8345,4.9538,-9.8680,9.3764,-8.0336,-63.3433
1.88,-0.0245,-9.8345,4.9537,-9.8779,9.3814,-8.0472,-63.3662
1.89,-0.0245,-9.8345,4.9537,-9.8877,9.3864,-8.0607,-63.3892
1.89,-0.0245,-9.8345,4.9537,-9.8975,9.3913,-8.0743,-63.4121
1.89,-0.0245,-9.8345,4.9537,-9.9074,9.3963,-8.0878,-63.4350
1.89,-0.0245,-9.8345,4.9536,-9.9172,9.4012,-8.1014,-63.4578
1.89,-0.0245,-9.8345,4.9536,-9.9270,9.4062,-8.1150,-63.4806
1.89,-0.0245,-9.8345,4.9536,-9.9369,9.4111,-8.1286,-63.5034
1.89,-0.0245,-9.8345,4.9536,-9.9467,9.4161,-8.1422,-63.5261
1.89,-0.0245,-9.8345,4.9535,-9.9565,9.4210,-8.1558,-63.5488
1.89,-0.0245,-9.8345,4.9535,-9.9664,9.4260,-8.1694,-63.5715
1.90,-0.0245,-9.8345,4.9535,-9.9762,9.4309,-8.1830,-63.5941
1.90,-0.0245,-9.8345,4.9535,-9.9860,9.4359,-8.1967,-63.6167
1.90,-0.0245,-9.8345,4.9535,-9.9959,9.4409,-8.2103,-63.6393
1.90,-0.0245,-9.8345,4.9534,-10.0057,9.4458,-8.2240,-63.6618
1.90,-0.0245,-9.8345,4.9534,-10.0155,9.4508,-8.2377,-63.6843
1.90,-0.0245,-9.8345,4.9534,-10.0254,9.4557,-8.2513,-63.7067
1.90,-0.0245,-9.8345,4.9534,-10.0352,9.4607,-8.2650,-63.7291
1.90,-0.0245,-9.8345,4.9533,-10.0450,9.4656,-8.2787,-63.7515
1.90,-0.0245,-9.8345,4.9533,-10.0549,9.4706,-8.2924,-63.7739
1.90,-0.0245,-9.8345,4.9533,-10.0647,9.4755,-8.3062,-63.7962
1.90,-0.0245,-9.8345,4.9533,-10.0745,9.4805,-8.3199,-63.8184
1.91,-0.0245,-9.8345,4.9532,-10.0844,9.4854,-8.3336,-63.8407
1.91,-0.0245,-9.8345,4.9532,-10.0942,9.4904,-8.3474,-63.8629
1.91,-0.0245,-9.8345,4.9532,-10.1040,9.4953,-8.3611,-63.8850
1.91,-0.0245,-9.8345,4.9532,-10.1139,9.5003,-8.3749,-63.9072
1.91,-0.0245,-9.8345,4.9531,-10.1237,9.5052,-8.3887,-63.9293
1.91,-0.0245,-9.8345,4.9531,-10.1335,9.5102,-8.4025,-63.9513
1.91,-0.0245,-9.8345,4.9531,-10.1434,9.5152,-8.4163,-63.9734
1.91,-0.0245,-9.8345,4.9531,-10.1532,9.5201,-8.4301,-63.9954
1.91,-0.0245,-9.8345,4.9530,-10.1630,9.5251,-8.4439,-64.0173
1.92,-0.0245,-9.8345,4.9530,-10.1729,9.5300,-8.4577,-64.0392
1.92,-0.0245,-9.8345,4.9530,-10.1827,9.5350,-8.4716,-64.0611
1.92,-0.0245,-9.8345,4.9530,-10.1925,9.5399,-8.4854,-64.0830
1.92,-0.0245,-9.8345,4.9529,-10.2024,9.5449,-8.4993,-64.1048
1.92,-0.0245,-9.8345,4.9529,-10.2122,9.5498,-8.5131,-64.1266
1.92,-0.0245,-9.8345,4.9529,-10.2220,9.5548,-8.5270,-64.1484
1.92,-0.0245,-9.8345,4.9529,-10.2319,9.5597,-8.5409,-64.1701
1.92,-0.0245,-9.8345,4.9529,-10.2417,9.5647,-8.5548,-64.1918
1.92,-0.0245,-9.8345,4.9528,-10.2515,9.5696,-8.5687,-64.2134
1.92,-0.0245,-9.8345,4.9528,-10.2614,9.5746,-8.5826,-64.2351
1.92,-0.0245,-9.8345,4.9528,-10.2712,9.5796,-8.5965,-64.2566
1.93,-0.0245,-9.8345,4.9528,-10.2811,9.5845,-8.6105,-64.2782
1.93,-0.0245,-9.8345,4.9527,-10.2909,9.5895,-8.6244,-64.2997
1.93,-0.0245,-9.8345,4.9527,-10.3007,9.5944,-8.6384,-64.3212
1.93,-0.0245,-9.8345,4.9527,-10.3106,9.5994,-8.6523,-64.3427
1.93,-0.0245,-9.8345,4.9527,-10.3204,9.6043,-8.6663,-64.3641
1.93,-0.0245,-9.8345,4.9526,-10.3302,9.6093,-8.6803,-64.3855
1.93,-0.0245,-9.8345,4.9526,-10.3401,9.6142,-8.6943,-64.4068
1.93,-0.0245,-9.8345,4.9526,-10.3499,9.6192,-8.7083,-64.4281
1.93,-0.0245,-9.8345,4.9526,-10.3597,9.6241,-8.7223,-64.4494
1.94,-0.0245,-9.8345,4.9525,-10.3696,9.6291,-8.7363,-64.4707
1.94,-0.0245,-9.8345,4.9525,-10.3794,9.6340,-8.7504,-64.4919
1.94,-0.0245,-9.8345,4.9525,-10.3892,9.6390,-8.7644,-64.5131
1.94,-0.0245,-9.8345,4.9525,-10.3991,9.6439,-8.7785,-64.5343
1.94,-0.0245,-9.8345,4.9524,-10.4089,9.6489,-8.7925,-64.5554
1.94,-0.0245,-9.8345,4.9524,-10.4187,9.6538,-8.8066,-64.5765
1.94,-0.0245,-9.8345,4.9524,-10.4286,9.6588,-8.8207,-64.5975
1.94,-0.0245,-9.8345,4.9524,-10.4384,9.6638,-8.8348,-64.6186
1.94,-0.0245,-9.8345,4.9523,-10.4482,9.6687,-8.8489,-64.6396
1.94,-0.0245,-9.8345,4.9523,-10.4581,9.6737,-8.8630,-64.6605
1.94,-0.0245,-9.8345,4.9523,-10.4679,9.6786,-8.8771,-64.6815
1.95,-0.0245,-9.8345,4.9523,-10.4777,9.6836,-8.8913,-64.7024
1.95,-0.0245,-9.8345,4.9522,-10.4876,9.6885,-8.9054,-64.7232
1.95,-0.0245,-9.8345,4.9522,-10.4974,9.6935,-8.9196,-64.7441
1.95,-0.0245,-9.8345,4.9522,-10.5072,9.6984,-8.9337,-64.7649
1.95,-0.0245,-9.8345,4.9522,-10.5171,9.7034,-8.9479,-64.7856
1.95,-0.0245,-9.8345,4.9522,-10.5269,9.7083,-8.9621,-64.8064
1.95,-0.0245,-9.8345,4.9521,-10.5367,9.7133,-8.9763,-64.8271
1.95,-0.0245,-9.8345,4.9521,-10.5466,9.7182,-8.9905,-64.8478
1.95,-0.0245,-9.8345,4.9521,-10.5564,9.7232,-9.0047,-64.8684
1.96,-0.0245,-9.8345,4.9521,-10.5662,9.7281,-9.0189,-64.8890
1.96,-0.0245,-9.8345,4.9520,-10.5761,9.7331,-9.0331,-64.9096
1.96,-0.0245,-9.8345,4.9520,-10.5859,9.7380,-9.0474,-64.9302
1.96,-0.0245,-9.8345,4.9520,-10.5957,9.7430,-9.0616,-64.9507
1.96,-0.0245,-9.8345,4.9520,-10.6056,9.7479,-9.0759,-64.9712
1.96,-0.0245,-9.8345,4.9519,-10.6154,9.7529,-9.0901,-64.9916
1.96,-0.0245,-9.8345,4.9519,-10.6252,9.7579,-9.1044,-65.0120
1.96,-0.0245,-9.8345,4.9519,-10.6351,9.7628,-9.1187,-65.0324
1.96,-0.0245,-9.8345,4.9519,-10.6449,9.7678,-9.1330,-65.0528
1.96,-0.0245,-9.8345,4.9518,-10.6547,9.7727,-9.1473,-65.0731
1.96,-0.0245,-9.8345,4.9518,-10.6646,9.7777,-9.1616,-65.0934
1.97,-0.0245,-9.8345,4.9518,-10.6744,9.7826,-9.1760,-65.1137
1.97,-0.0245,-9.8345,4.9518,-10.6842,9.7876,-9.1903,-65.1340
1.97,-0.0245,-9.8345,4.9517,-10.6941,9.7925,-9.2047,-65.1542
1.97,-0.0245,-9.8345,4.9517,-10.7039,9.7975,-9.2190,-65.1743
1.97,-0.0245,-9.8345,4.9517,-10.7137,9.8024,-9.2334,-65.1945
1.97,-0.0245,-9.8345,4.9517,-10.7236,9.8074,-9.2478,-65.2146
1.97,-0.0245,-9.8345,4.9516,-10.7334,9.8123,-9.2622,-65.2347
1.97,-0.0245,-9.8345,4.9516,-10.7433,9.8173,-9.2766,-65.2548
1.97,-0.0245,-9.8345,4.9516,-10.7531,9.8222,-9.2910,-65.2748
1.98,-0.0245,-9.8345,4.9516,-10.7629,9.8272,-9.3054,-65.2948
1.98,-0.0245,-9.8345,4.9516,-10.7728,9.8321,-9.3198,-65.3148
1.98,-0.0245,-9.8345,4.9515,-10.7826,9.8371,-9.3342,-65.3347
1.98,-0.0245,-9.8345,4.9515,-10.7924,9.8420,-9.3487,-65.3546
1.98,-0.0245,-9.8345,4.9515,-10.8023,9.8470,-9.3632,-65.3745
1.98,-0.0245,-9.8345,4.9515,-10.8121,9.8519,-9.3776,-65.3943
1.98,-0.0245,-9.8345,4.9514,-10.8219,9.8569,-9.3921,-65.4141
1.98,-0.0245,-9.8345,4.9514,-10.8318,9.8618,-9.4066,-65.4339
1.98,-0.0245,-9.8345,4.9514,-10.8416,9.8668,-9.4211,-65.4537
1.98,-0.0245,-9.8345,4.9514,-10.8514,9.8717,-9.4356,-65.4734
1.98,-0.0245,-9.8345,4.9513,-10.8613,9.8767,-9.4501,-65.4931
1.99,-0.0245,-9.8345,4.9513,-10.8711,9.8817,-9.4646,-65.5128
1.99,-0.0245,-9.8345,4.9513,-10.8809,9.8866,-9.4792,-65.5324
1.99,-0.0245,-9.8345,4.9513,-10.8908,9.8916,-9.4937,-65.5520
1.99,-0.0245,-9.8345,4.9512,-10.9006,9.8965,-9.5083,-65.5716
1.99,-0.0245,-9.8345,4.9512,-10.9104,9.9015,-9.5228,-65.5912
1.99,-0.0245,-9.8345,4.9512,-10.9203,9.9064,-9.5374,-65.6107
1.99,-0.0245,-9.8345,4.9512,-10.9301,9.9114,-9.5520,-65.6302
1.99,-0.0245,-9.8345,4.9511,-10.9399,9.9163,-9.5666,-65.6497
1.99,-0.0245,-9.8345,4.9511,-10.9498,9.9213,-9.5812,-65.6691
2.00,-0.0245,-9.8345,4.9511,-10.9596,9.9262,-9.5958,-65.6885
2.00,-0.0245,-9.8345,4.9511,-10.9694,9.9312,-9.6104,-65.7079
2.00,-0.0245,-9.8345,4.9510,-10.9793,9.9361,-9.6251,-65.7272
2.00,-0.0245,-9.8345,4.9510,-10.9891,9.9411,-9.6397,-65.7466
2.00,-0.0245,-9.8345,4.9510,-10.9989,9.9460,-9.6544,-65.7659
2.00,-0.0245,-9.8345,4.9510,-11.0088,9.9510,-9.6690,-65.7851
2.00,-0.0245,-9.8345,4.9510,-11.0186,9.9559,-9.6837,-65.8044
2.00,-0.0245,-9.8345,4.9509,-11.0284,9.9609,-9.6984,-65.8236
2.00,-0.0245,-9.8345,4.9509,-11.0383,9.9658,-9.7131,-65.8427
2.00,-0.0245,-9.8345,4.9509,-11.0481,9.9708,-9.7278,-65.8619
2.00,-0.0245,-9.8345,4.9509,-11.0579,9.9757,-9.7425,-65.8810
2.01,-0.0245,-9.8345,4.9508,-11.0678,9.9807,-9.7572,-65.9001
2.01,-0.0245,-9.8345,4.9508,-11.0776,9.9856,-9.7719,-65.9192
2.01,-0.0245,-9.8345,4.9508,-11.0874,9.9906,-9.7867,-65.9382
2.01,-0.0245,-9.8345,4.9508,-11.0973,9.9955,-9.8014,-65.9572
2.01,-0.0245,-9.8345,4.9507,-11.1071,10.0005,-9.8162,-65.9762
2.01,-0.0245,-9.8345,4.9507,-11.1169,10.0054,-9.8310,-65.9951
2.01,-0.0245,-9.8345,4.9507,-11.1268,10.0104,-9.8458,-66.0141
2.01,-0.0245,-9.8345,4.9507,-11.1366,10.0153,-9.8605,-66.0330
2.01,-0.0245,-9.8345,4.9506,-11.1464,10.0203,-9.8753,-66.0518
2.02,-0.0245,-9.8345,4.9506,-11.1563,10.0252,-9.8902,-66.0707
2.02,-0.0245,-9.8345,4.9506,-11.1661,10.0302,-9.9050,-66.0895
2.02,-0.0245,-9.8345,4.9506,-11.1759,10.0351,-9.9198,-66.1083
2.02,-0.0245,-9.8345,4.9505,-11.1858,10.0401,-9.9347,-66.1270
2.02,-0.0245,-9.8345,4.9505,-11.1956,10.0450,-9.9495,-66.1458
2.02,-0.0245,-9.8345,4.9505,-11.2055,10.0500,-9.9644,-66.1645
2.02,-0.0245,-9.8345,4.9505,-11.2153,10.0550,-9.9792,-66.1832
2.02,-0.0245,-9.8345,4.9504,-11.2251,10.0599,-9.9941,-66.2018
2.02,-0.0245,-9.8345,4.9504,-11.2350,10.0649,-10.0090,-66.2204
2.02,-0.0245,-9.8345,4.9504,-11.2448,10.0698,-10.0239,-66.2390
2.02,-0.0245,-9.8345,4.9504,-11.2546,10.0748,-10.0388,-66.2576
2.03,-0.0245,-9.8345,4.9504,-11.2645,10.0797,-10.0537,-66.2761
2.03,-0.0245,-9.8345,4.9503,-11.2743,10.0847,-10.0687,-66.2946
2.03,-0.0245,-9.8345,4.9503,-11.2841,10.0896,-10.0836,-66.3131
2.03,-0.0245,-9.8345,4.9503,-11.2940,10.0946,-10.0985,-66.3316
2.03,-0.0245,-9.8345,4.9503,-11.3038,10.0995,-10.1135,-66.3500
2.03,-0.0245,-9.8345,4.9502,-11.3136,10.1045,-10.1285,-66.3684
2.03,-0.0245,-9.8345,4.9502,-11.3235,10.1094,-10.1435,-66.3868
2.03,-0.0245,-9.8345,4.9502,-11.3333,10.1144,-10.1584,-66.4051
2.03,-0.0245,-9.8345,4.9502,-11.3431,10.1193,-10.1734,-66.4235
2.04,-0.0245,-9.8345,4.9501,-11.3530,10.1243,-10.1884,-66.4418
2.04,-0.0245,-9.8345,4.9501,-11.3628,10.1292,-10.2035,-66.4600
2.04,-0.0245,-9.8345,4.9501,-11.3726,10.1342,-10.2185,-66.4783
2.04,-0.0245,-9.8345,4.9501,-11.3825,10.1391,-10.2335,-66.4965
2.04,-0.0245,-9.8345,4.9500,-11.3923,10.1441,-10.2486,-66.5147
2.04,-0.0245,-9.8345,4.9500,-11.4021,10.1490,-10.2636,-66.5329
2.04,-0.0245,-9.8345,4.9500,-11.4120,10.1540,-10.2787,-66.5510
2.04,-0.0245,-9.8345,4.9500,-11.4218,10.1589,-10.2938,-66.5691
2.04,-0.0245,-9.8345,4.9499,-11.4316,10.1639,-10.3089,-66.5872
2.04,-0.0245,-9.8345,4.9499,-11.4415,10.1688,-10.3240,-66.6053
