time,accel_x,accel_y,vel_x,vel_y,dis_x,dis_y,ang
0.00,0.0000,-9.8100,8.6603,5.0000,0.0000,30.0000,30.0000
0.02,-0.1875,-9.8725,8.6565,4.8026,0.1731,30.0961,29.0210
0.04,-0.1873,-9.8677,8.6528,4.6052,0.3462,30.1882,28.0228
0.06,-0.1872,-9.8630,8.6491,4.4079,0.5192,30.2763,27.0054
0.08,-0.1870,-9.8586,8.6453,4.2108,0.6921,30.3605,25.9687
0.10,-0.1869,-9.8543,8.6416,4.0137,0.8649,30.4408,24.9130
0.12,-0.1867,-9.8503,8.6378,3.8167,1.0377,30.5171,23.8385
0.14,-0.1865,-9.8464,8.6341,3.6197,1.2103,30.5895,22.7453
0.16,-0.1864,-9.8428,8.6304,3.4229,1.3830,30.6580,21.6337
0.18,-0.1862,-9.8393,8.6267,3.2261,1.5555,30.7225,20.5042
0.20,-0.1860,-9.8360,8.6229,3.0294,1.7279,30.7831,19.3572
0.22,-0.1859,-9.8329,8.6192,2.8327,1.9003,30.8398,18.1932
0.24,-0.1857,-9.8301,8.6155,2.6361,2.0726,30.8925,17.0127
0.26,-0.1856,-9.8274,8.6118,2.4396,2.2449,30.9413,15.8165
0.28,-0.1854,-9.8249,8.6081,2.2431,2.4170,30.9861,14.6052
0.30,-0.1852,-9.8226,8.6044,2.0466,2.5891,31.0271,13.3797
0.32,-0.1851,-9.8205,8.6007,1.8502,2.7611,31.0641,12.1407
0.34,-0.1849,-9.8186,8.5970,1.6538,2.9331,31.0971,10.8892
0.36,-0.1848,-9.8168,8.5933,1.4575,3.1049,31.1263,9.6263
0.38,-0.1846,-9.8153,8.5896,1.2612,3.2767,31.1515,8.3530
0.40,-0.1845,-9.8140,8.5859,1.0649,3.4485,31.1728,7.0704
0.42,-0.1843,-9.8128,8.5822,0.8687,3.6201,31.1902,5.7796
0.44,-0.1841,-9.8119,8.5785,0.6724,3.7917,31.2036,4.4820
0.46,-0.1840,-9.8111,8.5749,0.4762,3.9632,31.2132,3.1787
0.48,-0.1838,-9.8106,8.5712,0.2800,4.1346,31.2188,1.8710
0.50,-0.1837,-9.8102,8.5675,0.0838,4.3059,31.2204,0.5603
0.52,-0.1835,-9.8100,8.5638,-0.1124,4.4772,31.2182,-0.7520
0.54,-0.1833,-9.8100,8.5602,-0.3086,4.6484,31.2120,-2.0647
0.56,-0.1832,-9.8098,8.5565,-0.5048,4.8196,31.2019,-3.3763
0.58,-0.1830,-9.8094,8.5529,-0.7010,4.9906,31.1879,-4.6855
0.60,-0.1829,-9.8088,8.5492,-0.8972,5.1616,31.1700,-5.9908
0.62,-0.1827,-9.8080,8.5455,-1.0933,5.3325,31.1481,-7.2909
0.64,-0.1826,-9.8070,8.5419,-1.2895,5.5033,31.1223,-8.5844
0.66,-0.1824,-9.8058,8.5382,-1.4856,5.6741,31.0926,-9.8702
0.68,-0.1823,-9.8045,8.5346,-1.6817,5.8448,31.0590,-11.1469
0.70,-0.1821,-9.8029,8.5310,-1.8777,6.0154,31.0214,-12.4133
0.72,-0.1819,-9.8012,8.5273,-2.0738,6.1860,30.9799,-13.6684
0.74,-0.1818,-9.7992,8.5237,-2.2697,6.3564,30.9345,-14.9111
0.76,-0.1816,-9.7971,8.5200,-2.4657,6.5268,30.8852,-16.1403
0.78,-0.1815,-9.7948,8.5164,-2.6616,6.6972,30.8320,-17.3552
0.80,-0.1813,-9.7923,8.5128,-2.8574,6.8674,30.7748,-18.5550
0.82,-0.1812,-9.7896,8.5092,-3.0532,7.0376,30.7138,-19.7387
0.84,-0.1810,-9.7867,8.5055,-3.2490,7.2077,30.6488,-20.9059
0.86,-0.1809,-9.7836,8.5019,-3.4446,7.3778,30.5799,-22.0557
0.88,-0.1807,-9.7803,8.4983,-3.6402,7.5477,30.5071,-23.1877
0.90,-0.1806,-9.7769,8.4947,-3.8358,7.7176,30.4304,-24.3015
0.92,-0.1804,-9.7732,8.4911,-4.0312,7.8874,30.3498,-25.3965
0.94,-0.1802,-9.7694,8.4875,-4.2266,8.0572,30.2652,-26.4725
0.96,-0.1801,-9.7653,8.4839,-4.4219,8.2269,30.1768,-27.5292
0.98,-0.1799,-9.7611,8.4803,-4.6171,8.3965,30.0844,-28.5664
1.00,-0.1798,-9.7567,8.4767,-4.8123,8.5660,29.9882,-29.5839
1.02,-0.1796,-9.7521,8.4731,-5.0073,8.7355,29.8881,-30.5817
1.04,-0.1795,-9.7473,8.4695,-5.2023,8.9049,29.7840,-31.5597
1.06,-0.1793,-9.7423,8.4659,-5.3971,9.0742,29.6761,-32.5179
1.08,-0.1792,-9.7372,8.4623,-5.5919,9.2434,29.5642,-33.4565
1.10,-0.1790,-9.7318,8.4588,-5.7865,9.4126,29.4485,-34.3754
1.12,-0.1789,-9.7263,8.4552,-5.9810,9.5817,29.3289,-35.2748
1.14,-0.1787,-9.7206,8.4516,-6.1754,9.7507,29.2054,-36.1549
1.16,-0.1786,-9.7147,8.4480,-6.3697,9.9197,29.0780,-37.0159
1.18,-0.1784,-9.7086,8.4445,-6.5639,10.0886,28.9467,-37.8580
1.20,-0.1783,-9.7023,8.4409,-6.7579,10.2574,28.8115,-38.6814
1.22,-0.1781,-9.6958,8.4373,-6.9519,10.4261,28.6725,-39.4865
1.24,-0.1780,-9.6892,8.4338,-7.1456,10.5948,28.5296,-40.2734
1.26,-0.1778,-9.6823,8.4302,-7.3393,10.7634,28.3828,-41.0426
1.28,-0.1777,-9.6753,8.4267,-7.5328,10.9320,28.2321,-41.7943
1.30,-0.1775,-9.6681,8.4231,-7.7262,11.1004,28.0776,-42.5288
1.32,-0.1774,-9.6608,8.4196,-7.9194,11.2688,27.9192,-43.2465
1.34,-0.1772,-9.6532,8.4160,-8.1124,11.4371,27.7570,-43.9477
1.36,-0.1771,-9.6455,8.4125,-8.3054,11.6054,27.5909,-44.6328
1.38,-0.1769,-9.6376,8.4089,-8.4981,11.7736,27.4209,-45.3021
1.40,-0.1768,-9.6295,8.4054,-8.6907,11.9417,27.2471,-45.9560
1.42,-0.1766,-9.6212,8.4019,-8.8831,12.1097,27.0694,-46.5948
1.44,-0.1765,-9.6127,8.3984,-9.0754,12.2777,26.8879,-47.2188
1.46,-0.1763,-9.6041,8.3948,-9.2675,12.4456,26.7026,-47.8285
1.48,-0.1762,-9.5953,8.3913,-9.4594,12.6134,26.5134,-48.4241
1.50,-0.1760,-9.5863,8.3878,-9.6511,12.7812,26.3204,-49.0060
1.52,-0.1759,-9.5771,8.3843,-9.8426,12.9488,26.1235,-49.5746
1.54,-0.1757,-9.5678,8.3807,-10.0340,13.1165,25.9228,-50.1301
1.56,-0.1756,-9.5583,8.3772,-10.2251,13.2840,25.7183,-50.6730
1.58,-0.1754,-9.5486,8.3737,-10.4161,13.4515,25.5100,-51.2035
1.60,-0.1753,-9.5388,8.3702,-10.6069,13.6189,25.2979,-51.7220
1.62,-0.1752,-9.5287,8.3667,-10.7975,13.7862,25.0819,-52.2287
1.64,-0.1750,-9.5185,8.3632,-10.9878,13.9535,24.8622,-52.7240
1.66,-0.1749,-9.5082,8.3597,-11.1780,14.1207,24.6386,-53.2082
1.68,-0.1747,-9.4976,8.3562,-11.3680,14.2878,24.4113,-53.6816
1.70,-0.1746,-9.4869,8.3527,-11.5577,14.4549,24.1801,-54.1444
1.72,-0.1744,-9.4760,8.3492,-11.7472,14.6218,23.9452,-54.5970
1.74,-0.1743,-9.4650,8.3458,-11.9365,14.7888,23.7064,-55.0396
1.76,-0.1741,-9.4538,8.3423,-12.1256,14.9556,23.4639,-55.4724
1.78,-0.1740,-9.4424,8.3388,-12.3144,15.1224,23.2176,-55.8959
1.80,-0.1738,-9.4309,8.3353,-12.5031,15.2891,22.9676,-56.3101
1.82,-0.1737,-9.4192,8.3318,-12.6914,15.4557,22.7137,-56.7154
1.84,-0.1735,-9.4073,8.3284,-12.8796,15.6223,22.4561,-57.1119
1.86,-0.1734,-9.3953,8.3249,-13.0675,15.7888,22.1948,-57.5000
1.88,-0.1733,-9.3831,8.3214,-13.2552,15.9552,21.9297,-57.8798
1.90,-0.1731,-9.3708,8.3180,-13.4426,16.1216,21.6608,-58.2516
1.92,-0.1730,-9.3582,8.3145,-13.6297,16.2879,21.3882,-58.6156
1.94,-0.1728,-9.3456,8.3111,-13.8166,16.4541,21.1119,-58.9720
1.96,-0.1727,-9.3328,8.3076,-14.0033,16.6202,20.8318,-59.3210
1.98,-0.1725,-9.3198,8.3042,-14.1897,16.7863,20.5481,-59.6628
2.00,-0.1724,-9.3066,8.3007,-14.3758,16.9523,20.2605,-59.9975
2.02,-0.1723,-9.2933,8.2973,-14.5617,17.1183,19.9693,-60.3255
2.04,-0.1721,-9.2799,8.2938,-14.7473,17.2842,19.6744,-60.6468
2.06,-0.1720,-9.2663,8.2904,-14.9326,17.4500,19.3757,-60.9616
2.08,-0.1718,-9.2525,8.2870,-15.1177,17.6157,19.0733,-61.2701
2.10,-0.1717,-9.2386,8.2835,-15.3024,17.7814,18.7673,-61.5724
2.12,-0.1715,-9.2246,8.2801,-15.4869,17.9470,18.4576,-61.8688
2.14,-0.1714,-9.2104,8.2767,-15.6711,18.1125,18.1441,-62.1594
2.16,-0.1713,-9.1960,8.2732,-15.8551,18.2780,17.8270,-62.4443
2.18,-0.1711,-9.1815,8.2698,-16.0387,18.4434,17.5063,-62.7236
2.20,-0.1710,-9.1669,8.2664,-16.2220,18.6087,17.1818,-62.9976
2.22,-0.1708,-9.1521,8.2630,-16.4051,18.7740,16.8537,-63.2663
2.24,-0.1707,-9.1372,8.2596,-16.5878,18.9391,16.5220,-63.5299
2.26,-0.1706,-9.1221,8.2561,-16.7703,19.1043,16.1866,-63.7886
2.28,-0.1704,-9.1069,8.2527,-16.9524,19.2693,15.8475,-64.0423
2.30,-0.1703,-9.0915,8.2493,-17.1342,19.4343,15.5048,-64.2913
2.32,-0.1701,-9.0760,8.2459,-17.3158,19.5992,15.1585,-64.5357
2.34,-0.1700,-9.0604,8.2425,-17.4970,19.7641,14.8086,-64.7756
2.36,-0.1698,-9.0446,8.2391,-17.6779,19.9289,14.4550,-65.0111
2.38,-0.1697,-9.0287,8.2357,-17.8584,20.0936,14.0978,-65.2423
2.40,-0.1696,-9.0127,8.2324,-18.0387,20.2582,13.7371,-65.4694
2.42,-0.1694,-8.9965,8.2290,-18.2186,20.4228,13.3727,-65.6923
2.44,-0.1693,-8.9802,8.2256,-18.3982,20.5873,13.0047,-65.9113
2.46,-0.1692,-8.9638,8.2222,-18.5775,20.7518,12.6332,-66.1263
2.48,-0.1690,-8.9472,8.2188,-18.7564,20.9161,12.2581,-66.3376
2.50,-0.1689,-8.9305,8.2154,-18.9350,21.0804,11.8794,-66.5452
2.52,-0.1687,-8.9137,8.2121,-19.1133,21.2447,11.4971,-66.7492
2.54,-0.1686,-8.8967,8.2087,-19.2913,21.4089,11.1113,-66.9496
2.56,-0.1685,-8.8796,8.2053,-19.4688,21.5730,10.7219,-67.1466
2.58,-0.1683,-8.8624,8.2020,-19.6461,21.7370,10.3290,-67.3402
2.60,-0.1682,-8.8451,8.1986,-19.8230,21.9010,9.9325,-67.5305
2.62,-0.1680,-8.8276,8.1952,-19.9995,22.0649,9.5325,-67.7176
2.64,-0.1679,-8.8100,8.1919,-20.1757,22.2287,9.1290,-67.9016
2.66,-0.1678,-8.7923,8.1885,-20.3516,22.3925,8.7220,-68.0825
2.68,-0.1676,-8.7745,8.1852,-20.5271,22.5562,8.3114,-68.2604
2.70,-0.1675,-8.7566,8.1818,-20.7022,22.7198,7.8974,-68.4354
2.72,-0.1674,-8.7385,8.1785,-20.8770,22.8834,7.4798,-68.6075
2.74,-0.1672,-8.7204,8.1751,-21.0514,23.0469,7.0588,-68.7768
2.76,-0.1671,-8.7021,8.1718,-21.2254,23.2103,6.6343,-68.9433
2.78,-0.1669,-8.6837,8.1684,-21.3991,23.3737,6.2063,-69.1072
2.80,-0.1668,-8.6652,8.1651,-21.5724,23.5370,5.7749,-69.2685
2.82,-0.1667,-8.6466,8.1618,-21.7453,23.7002,5.3400,-69.4272
2.84,-0.1665,-8.6278,8.1584,-21.9179,23.8634,4.9016,-69.5834
2.86,-0.1664,-8.6090,8.1551,-22.0901,24.0265,4.4598,-69.7371
2.88,-0.1663,-8.5901,8.1518,-22.2619,24.1896,4.0146,-69.8884
2.90,-0.1661,-8.5710,8.1485,-22.4333,24.3525,3.5659,-70.0374
2.92,-0.1660,-8.5519,8.1451,-22.6043,24.5154,3.1138,-70.1841
2.94,-0.1659,-8.5326,8.1418,-22.7750,24.6783,2.6583,-70.3285
2.96,-0.1657,-8.5132,8.1385,-22.9453,24.8410,2.1994,-70.4708
2.98,-0.1656,-8.4938,8.1352,-23.1151,25.0037,1.7371,-70.6109
3.00,-0.1655,-8.4742,8.1319,-23.2846,25.1664,1.2714,-70.7488
3.02,-0.1653,-8.4546,8.1286,-23.4537,25.3289,0.8023,-70.8847
3.04,-0.1652,-8.4348,8.1253,-23.6224,25.4914,0.3299,-71.0186
3.06,-0.1651,-8.4150,8.1220,-23.7907,25.6539,-0.1459,-71.1505
3.08,-0.1649,-8.3950,8.1187,-23.9586,25.8163,-0.6251,-71.2804
3.10,-0.1648,-8.3750,8.1154,-24.1261,25.9786,-1.1076,-71.4084
3.12,-0.1646,-8.3548,8.1121,-24.2932,26.1408,-1.5935,-71.5346
3.14,-0.1645,-8.3346,8.1088,-24.4599,26.3030,-2.0827,-71.6589
3.16,-0.1644,-8.3143,8.1055,-24.6262,26.4651,-2.5752,-71.7814
3.18,-0.1642,-8.2939,8.1022,-24.7921,26.6271,-3.0710,-71.9022
3.20,-0.1641,-8.2734,8.0990,-24.9575,26.7891,-3.5702,-72.0213
3.22,-0.1640,-8.2528,8.0957,-25.1226,26.9510,-4.0726,-72.1386
3.24,-0.1638,-8.2321,8.0924,-25.2872,27.1129,-4.5784,-72.2543
3.26,-0.1637,-8.2114,8.0891,-25.4515,27.2747,-5.0874,-72.3684
3.28,-0.1636,-8.1906,8.0858,-25.6153,27.4364,-5.5997,-72.4809
3.30,-0.1635,-8.1696,8.0826,-25.7787,27.5980,-6.1153,-72.5918
3.32,-0.1633,-8.1487,8.0793,-25.9416,27.7596,-6.6341,-72.7012
3.34,-0.1632,-8.1276,8.0760,-26.1042,27.9211,-7.1562,-72.8091
3.36,-0.1631,-8.1064,8.0728,-26.2663,28.0826,-7.6815,-72.9155
3.38,-0.1629,-8.0852,8.0695,-26.4280,28.2440,-8.2101,-73.0205
3.40,-0.1628,-8.0639,8.0663,-26.5893,28.4053,-8.7419,-73.1240
3.42,-0.1627,-8.0425,8.0630,-26.7501,28.5666,-9.2769,-73.2262
3.44,-0.1625,-8.0211,8.0598,-26.9106,28.7278,-9.8151,-73.3269
3.46,-0.1624,-7.9996,8.0565,-27.0706,28.8889,-10.3565,-73.4264
3.48,-0.1623,-7.9780,8.0533,-27.2301,29.0500,-10.9011,-73.5245
3.50,-0.1621,-7.9563,8.0500,-27.3892,29.2110,-11.4489,-73.6213
3.52,-0.1620,-7.9346,8.0468,-27.5479,29.3719,-11.9999,-73.7168
3.54,-0.1619,-7.9128,8.0436,-27.7062,29.5328,-12.5540,-73.8111
3.56,-0.1617,-7.8909,8.0403,-27.8640,29.6936,-13.1113,-73.9042
3.58,-0.1616,-7.8690,8.0371,-28.0214,29.8543,-13.6717,-73.9961
3.60,-0.1615,-7.8470,8.0339,-28.1783,30.0150,-14.2352,-74.0867
3.62,-0.1614,-7.8250,8.0306,-28.3348,30.1756,-14.8019,-74.1763
3.64,-0.1612,-7.8028,8.0274,-28.4909,30.3362,-15.3718,-74.2646
3.66,-0.1611,-7.7807,8.0242,-28.6465,30.4966,-15.9447,-74.3519
3.68,-0.1610,-7.7584,8.0210,-28.8017,30.6571,-16.5207,-74.4380
3.70,-0.1608,-7.7362,8.0177,-28.9564,30.8174,-17.0999,-74.5231
3.72,-0.1607,-7.7138,8.0145,-29.1107,30.9777,-17.6821,-74.6071
3.74,-0.1606,-7.6914,8.0113,-29.2645,31.1379,-18.2674,-74.6900
3.76,-0.1605,-7.6690,8.0081,-29.4179,31.2981,-18.8557,-74.7720
3.78,-0.1603,-7.6465,8.0049,-29.5708,31.4582,-19.4471,-74.8529
3.80,-0.1602,-7.6239,8.0017,-29.7233,31.6182,-20.0416,-74.9328
3.82,-0.1601,-7.6013,7.9985,-29.8753,31.7782,-20.6391,-75.0117
3.84,-0.1599,-7.5787,7.9953,-30.0269,31.9381,-21.2396,-75.0897
3.86,-0.1598,-7.5560,7.9921,-30.1780,32.0979,-21.8432,-75.1668
3.88,-0.1597,-7.5332,7.9889,-30.3287,32.2577,-22.4498,-75.2429
3.90,-0.1596,-7.5104,7.9857,-30.4789,32.4174,-23.0594,-75.3180
3.92,-0.1594,-7.4876,7.9825,-30.6286,32.5771,-23.6719,-75.3923
3.94,-0.1593,-7.4647,7.9793,-30.7779,32.7367,-24.2875,-75.4657
3.96,-0.1592,-7.4418,7.9762,-30.9268,32.8962,-24.9060,-75.5383
3.98,-0.1590,-7.4188,7.9730,-31.0751,33.0557,-25.5275,-75.6100
4.00,-0.1589,-7.3958,7.9698,-31.2230,33.2151,-26.1520,-75.6808
4.02,-0.1588,-7.3728,7.9666,-31.3705,33.3744,-26.7794,-75.7508
4.04,-0.1587,-7.3497,7.9635,-31.5175,33.5337,-27.4097,-75.8200
4.06,-0.1585,-7.3266,7.9603,-31.6640,33.6929,-28.0430,-75.8884
4.08,-0.1584,-7.3035,7.9571,-31.8101,33.8520,-28.6792,-75.9560
4.10,-0.1583,-7.2803,7.9540,-31.9557,34.0111,-29.3183,-76.0228
4.12,-0.1582,-7.2571,7.9508,-32.1008,34.1701,-29.9604,-76.0888
4.14,-0.1580,-7.2338,7.9476,-32.2455,34.3291,-30.6053,-76.1542
4.16,-0.1579,-7.2106,7.9445,-32.3897,34.4879,-31.2531,-76.2187
4.18,-0.1578,-7.1873,7.9413,-32.5335,34.6468,-31.9037,-76.2825
4.20,-0.1577,-7.1639,7.9382,-32.6768,34.8055,-32.5573,-76.3456
4.22,-0.1575,-7.1406,7.9350,-32.8196,34.9642,-33.2137,-76.4081
4.24,-0.1574,-7.1172,7.9319,-32.9619,35.1229,-33.8729,-76.4698
4.26,-0.1573,-7.0938,7.9287,-33.1038,35.2814,-34.5350,-76.5308
4.28,-0.1572,-7.0703,7.9256,-33.2452,35.4400,-35.1999,-76.5911
4.30,-0.1570,-7.0469,7.9224,-33.3861,35.5984,-35.8676,-76.6508
4.32,-0.1569,-7.0234,7.9193,-33.5266,35.7568,-36.5381,-76.7098
4.34,-0.1568,-6.9999,7.9162,-33.6666,35.9151,-37.2115,-76.7682
4.36,-0.1567,-6.9764,7.9130,-33.8061,36.0734,-37.8876,-76.8259
4.38,-0.1565,-6.9529,7.9099,-33.9452,36.2316,-38.5665,-76.8830
4.40,-0.1564,-6.9293,7.9068,-34.0838,36.3897,-39.2482,-76.9395
4.42,-0.1563,-6.9057,7.9036,-34.2219,36.5478,-39.9326,-76.9954
4.44,-0.1562,-6.8822,7.9005,-34.3595,36.7058,-40.6198,-77.0507
4.46,-0.1560,-6.8586,7.8974,-34.4967,36.8637,-41.3097,-77.1054
4.48,-0.1559,-6.8349,7.8943,-34.6334,37.0216,-42.0024,-77.1595
4.50,-0.1558,-6.8113,7.8912,-34.7696,37.1794,-42.6978,-77.2130
4.52,-0.1557,-6.7877,7.8880,-34.9054,37.3372,-43.3959,-77.2660
4.54,-0.1556,-6.7640,7.8849,-35.0407,37.4949,-44.0967,-77.3184
4.56,-0.1554,-6.7404,7.8818,-35.1755,37.6525,-44.8002,-77.3703
4.58,-0.1553,-6.7167,7.8787,-35.3098,37.8101,-45.5064,-77.4216
4.60,-0.1552,-6.6930,7.8756,-35.4437,37.9676,-46.2153,-77.4724
4.62,-0.1551,-6.6694,7.8725,-35.5771,38.1251,-46.9268,-77.5226
4.64,-0.1549,-6.6457,7.8694,-35.7100,38.2825,-47.6410,-77.5723
4.66,-0.1548,-6.6220,7.8663,-35.8424,38.4398,-48.3579,-77.6216
4.68,-0.1547,-6.5983,7.8632,-35.9744,38.5971,-49.0774,-77.6703
4.70,-0.1546,-6.5746,7.8601,-36.1059,38.7543,-49.7995,-77.7185
4.72,-0.1545,-6.5509,7.8570,-36.2369,38.9114,-50.5242,-77.7662
4.74,-0.1543,-6.5272,7.8540,-36.3674,39.0685,-51.2516,-77.8135
4.76,-0.1542,-6.5035,7.8509,-36.4975,39.2255,-51.9815,-77.8602
4.78,-0.1541,-6.4798,7.8478,-36.6271,39.3825,-52.7141,-77.9065
4.80,-0.1540,-6.4561,7.8447,-36.7562,39.5393,-53.4492,-77.9524
4.82,-0.1538,-6.4325,7.8416,-36.8849,39.6962,-54.1869,-77.9977
4.84,-0.1537,-6.4088,7.8386,-37.0130,39.8530,-54.9271,-78.0427
4.86,-0.1536,-6.3851,7.8355,-37.1407,40.0097,-55.6700,-78.0871
4.88,-0.1535,-6.3614,7.8324,-37.2680,40.1663,-56.4153,-78.1312
4.90,-0.1534,-6.3377,7.8294,-37.3947,40.3229,-57.1632,-78.1748
4.92,-0.1532,-6.3141,7.8263,-37.5210,40.4794,-57.9136,-78.2179
4.94,-0.1531,-6.2904,7.8232,-37.6468,40.6359,-58.6666,-78.2607
4.96,-0.1530,-6.2668,7.8202,-37.7722,40.7923,-59.4220,-78.3030
4.98,-0.1529,-6.2432,7.8171,-37.8970,40.9486,-60.1799,-78.3449
5.00,-0.1528,-6.2195,7.8141,-38.0214,41.1049,-60.9404,-78.3864
5.02,-0.1526,-6.1959,7.8110,-38.1453,41.2611,-61.7033,-78.4275
5.04,-0.1525,-6.1723,7.8079,-38.2688,41.4173,-62.4687,-78.4683
5.06,-0.1524,-6.1488,7.8049,-38.3917,41.5734,-63.2365,-78.5086
5.08,-0.1523,-6.1252,7.8019,-38.5142,41.7294,-64.0068,-78.5485
5.10,-0.1522,-6.1016,7.7988,-38.6363,41.8854,-64.7795,-78.5881
5.12,-0.1521,-6.0781,7.7958,-38.7578,42.0413,-65.5547,-78.6273
5.14,-0.1519,-6.0546,7.7927,-38.8789,42.1972,-66.3322,-78.6661
5.16,-0.1518,-6.0311,7.7897,-38.9996,42.3530,-67.1122,-78.7045
5.18,-0.1517,-6.0076,7.7867,-39.1197,42.5087,-67.8946,-78.7426
5.20,-0.1516,-5.9841,7.7836,-39.2394,42.6644,-68.6794,-78.7803
5.22,-0.1515,-5.9607,7.7806,-39.3586,42.8200,-69.4666,-78.8177
5.24,-0.1513,-5.9373,7.7776,-39.4773,42.9755,-70.2561,-78.8547
5.26,-0.1512,-5.9138,7.7745,-39.5956,43.1310,-71.0480,-78.8914
5.28,-0.1511,-5.8905,7.7715,-39.7134,43.2865,-71.8423,-78.9277
5.30,-0.1510,-5.8671,7.7685,-39.8308,43.4418,-72.6389,-78.9637
5.32,-0.1509,-5.8438,7.7655,-39.9477,43.5971,-73.4379,-78.9994
5.34,-0.1508,-5.8205,7.7625,-40.0641,43.7524,-74.2392,-79.0347
5.36,-0.1506,-5.7972,7.7595,-40.1800,43.9076,-75.0428,-79.0697
5.38,-0.1505,-5.7739,7.7565,-40.2955,44.0627,-75.8487,-79.1044
5.40,-0.1504,-5.7507,7.7534,-40.4105,44.2178,-76.6569,-79.1388
5.42,-0.1503,-5.7275,7.7504,-40.5250,44.3728,-77.4674,-79.1729
5.44,-0.1502,-5.7043,7.7474,-40.6391,44.5277,-78.2802,-79.2067
5.46,-0.1501,-5.6812,7.7444,-40.7528,44.6826,-79.0952,-79.2401
5.48,-0.1499,-5.6580,7.7414,-40.8659,44.8375,-79.9125,-79.2733
5.50,-0.1498,-5.6349,7.7384,-40.9786,44.9922,-80.7321,-79.3061
5.52,-0.1497,-5.6119,7.7354,-41.0909,45.1469,-81.5539,-79.3387
5.54,-0.1496,-5.5889,7.7325,-41.2026,45.3016,-82.3780,-79.3710
5.56,-0.1495,-5.5659,7.7295,-41.3139,45.4562,-83.2043,-79.4030
5.58,-0.1494,-5.5429,7.7265,-41.4248,45.6107,-84.0328,-79.4347
5.60,-0.1492,-5.5200,7.7235,-41.5352,45.7652,-84.8635,-79.4661
5.62,-0.1491,-5.4971,7.7205,-41.6451,45.9196,-85.6964,-79.4973
5.64,-0.1490,-5.4742,7.7175,-41.7546,46.0739,-86.5315,-79.5282
5.66,-0.1489,-5.4514,7.7145,-41.8637,46.2282,-87.3687,-79.5588
5.68,-0.1488,-5.4286,7.7116,-41.9722,46.3824,-88.2082,-79.5891
5.70,-0.1487,-5.4058,7.7086,-42.0803,46.5366,-89.0498,-79.6192
5.72,-0.1486,-5.3831,7.7056,-42.1880,46.6907,-89.8935,-79.6490
5.74,-0.1484,-5.3604,7.7027,-42.2952,46.8448,-90.7394,-79.6786
5.76,-0.1483,-5.3378,7.6997,-42.4020,46.9988,-91.5875,-79.7079
5.78,-0.1482,-5.3152,7.6967,-42.5083,47.1527,-92.4376,-79.7370
5.80,-0.1481,-5.2926,7.6938,-42.6141,47.3066,-93.2899,-79.7658
5.82,-0.1480,-5.2701,7.6908,-42.7195,47.4604,-94.1443,-79.7943
5.84,-0.1479,-5.2476,7.6878,-42.8245,47.6142,-95.0008,-79.8227
5.86,-0.1478,-5.2252,7.6849,-42.9290,47.7679,-95.8594,-79.8508
5.88,-0.1476,-5.2028,7.6819,-43.0330,47.9215,-96.7201,-79.8786
5.90,-0.1475,-5.1804,7.6790,-43.1366,48.0751,-97.5828,-79.9062
5.92,-0.1474,-5.1581,7.6760,-43.2398,48.2286,-98.4476,-79.9336
5.94,-0.1473,-5.1358,7.6731,-43.3425,48.3821,-99.3144,-79.9607
5.96,-0.1472,-5.1136,7.6702,-43.4448,48.5355,-100.1833,-79.9876
5.98,-0.1471,-5.0914,7.6672,-43.5466,48.6888,-101.0543,-80.0143
6.00,-0.1470,-5.0692,7.6643,-43.6480,48.8421,-101.9272,-80.0408
6.02,-0.1469,-5.0471,7.6613,-43.7490,48.9953,-102.8022,-80.0671
6.04,-0.1467,-5.0251,7.6584,-43.8495,49.1485,-103.6792,-80.0931
6.06,-0.1466,-5.0031,7.6555,-43.9495,49.3016,-104.5582,-80.1189
6.08,-0.1465,-4.9811,7.6525,-44.0491,49.4547,-105.4392,-80.1445
6.10,-0.1464,-4.9592,7.6496,-44.1483,49.6076,-106.3221,-80.1699
6.12,-0.1463,-4.9373,7.6467,-44.2471,49.7606,-107.2071,-80.1951
6.14,-0.1462,-4.9155,7.6438,-44.3454,49.9135,-108.0940,-80.2201
6.16,-0.1461,-4.8937,7.6408,-44.4433,50.0663,-108.9828,-80.2449
6.18,-0.1460,-4.8720,7.6379,-44.5407,50.2190,-109.8737,-80.2695
6.20,-0.1458,-4.8503,7.6350,-44.6377,50.3717,-110.7664,-80.2938
6.22,-0.1457,-4.8287,7.6321,-44.7343,50.5244,-111.6611,-80.3180
6.24,-0.1456,-4.8071,7.6292,-44.8304,50.6770,-112.5577,-80.3420
6.26,-0.1455,-4.7856,7.6263,-44.9261,50.8295,-113.4562,-80.3658
6.28,-0.1454,-4.7641,7.6234,-45.0214,50.9819,-114.3567,-80.3894
6.30,-0.1453,-4.7427,7.6205,-45.1163,51.1344,-115.2590,-80.4128
6.32,-0.1452,-4.7213,7.6175,-45.2107,51.2867,-116.1632,-80.4361
6.34,-0.1451,-4.7000,7.6146,-45.3047,51.4390,-117.0693,-80.4591
6.36,-0.1450,-4.6787,7.6117,-45.3983,51.5912,-117.9773,-80.4820
6.38,-0.1448,-4.6575,7.6088,-45.4914,51.7434,-118.8871,-80.5047
6.40,-0.1447,-4.6363,7.6060,-45.5841,51.8955,-119.7988,-80.5272
6.42,-0.1446,-4.6152,7.6031,-45.6764,52.0476,-120.7123,-80.5495
6.44,-0.1445,-4.5942,7.6002,-45.7683,52.1996,-121.6277,-80.5716
6.46,-0.1444,-4.5732,7.5973,-45.8598,52.3515,-122.5449,-80.5936
6.48,-0.1443,-4.5522,7.5944,-45.9508,52.5034,-123.4639,-80.6154
6.50,-0.1442,-4.5313,7.5915,-46.0415,52.6553,-124.3847,-80.6371
6.52,-0.1441,-4.5105,7.5886,-46.1317,52.8070,-125.3073,-80.6585
6.54,-0.1440,-4.4897,7.5858,-46.2215,52.9587,-126.2318,-80.6798
6.56,-0.1439,-4.4689,7.5829,-46.3108,53.1104,-127.1580,-80.7010
6.58,-0.1438,-4.4483,7.5800,-46.3998,53.2620,-128.0860,-80.7220
6.60,-0.1436,-4.4276,7.5771,-46.4884,53.4135,-129.0157,-80.7428
6.62,-0.1435,-4.4071,7.5743,-46.5765,53.5650,-129.9473,-80.7634
6.64,-0.1434,-4.3866,7.5714,-46.6642,53.7165,-130.8806,-80.7839
6.66,-0.1433,-4.3661,7.5685,-46.7516,53.8678,-131.8156,-80.8043
6.68,-0.1432,-4.3457,7.5657,-46.8385,54.0191,-132.7524,-80.8245
6.70,-0.1431,-4.3254,7.5628,-46.9250,54.1704,-133.6909,-80.8445
6.72,-0.1430,-4.3051,7.5599,-47.0111,54.3216,-134.6311,-80.8644
6.74,-0.1429,-4.2849,7.5571,-47.0968,54.4727,-135.5730,-80.8841
6.76,-0.1428,-4.2647,7.5542,-47.1821,54.6238,-136.5167,-80.9037
6.78,-0.1427,-4.2446,7.5514,-47.2670,54.7748,-137.4620,-80.9231
6.80,-0.1426,-4.2246,7.5485,-47.3515,54.9258,-138.4090,-80.9424
6.82,-0.1425,-4.2046,7.5457,-47.4355,55.0767,-139.3577,-80.9616
6.84,-0.1423,-4.1847,7.5428,-47.5192,55.2276,-140.3081,-80.9806
6.86,-0.1422,-4.1648,7.5400,-47.6025,55.3784,-141.2602,-80.9994
6.88,-0.1421,-4.1450,7.5371,-47.6854,55.5291,-142.2139,-81.0182
6.90,-0.1420,-4.1252,7.5343,-47.7679,55.6798,-143.1692,-81.0367
6.92,-0.1419,-4.1056,7.5315,-47.8501,55.8304,-144.1262,-81.0552
6.94,-0.1418,-4.0859,7.5286,-47.9318,55.9810,-145.0849,-81.0735
6.96,-0.1417,-4.0664,7.5258,-48.0131,56.1315,-146.0451,-81.0917
6.98,-0.1416,-4.0469,7.5230,-48.0940,56.2820,-147.0070,-81.1097
7.00,-0.1415,-4.0274,7.5201,-48.1746,56.4324,-147.9705,-81.1276
7.02,-0.1414,-4.0080,7.5173,-48.2547,56.5827,-148.9356,-81.1454
7.04,-0.1413,-3.9887,7.5145,-48.3345,56.7330,-149.9023,-81.1631
7.06,-0.1412,-3.9694,7.5116,-48.4139,56.8833,-150.8706,-81.1806
7.08,-0.1411,-3.9502,7.5088,-48.4929,57.0334,-151.8404,-81.1980
7.10,-0.1410,-3.9311,7.5060,-48.5715,57.1836,-152.8119,-81.2153
7.12,-0.1409,-3.9120,7.5032,-48.6498,57.3336,-153.7849,-81.2324
7.14,-0.1407,-3.8930,7.5004,-48.7276,57.4836,-154.7594,-81.2495
7.16,-0.1406,-3.8740,7.4976,-48.8051,57.6336,-155.7355,-81.2664
7.18,-0.1405,-3.8552,7.4948,-48.8822,57.7835,-156.7132,-81.2831
7.20,-0.1404,-3.8363,7.4919,-48.9589,57.9333,-157.6923,-81.2998
7.22,-0.1403,-3.8176,7.4891,-49.0353,58.0831,-158.6730,-81.3163
7.24,-0.1402,-3.7988,7.4863,-49.1113,58.2328,-159.6553,-81.3328
7.26,-0.1401,-3.7802,7.4835,-49.1869,58.3825,-160.6390,-81.3491
7.28,-0.1400,-3.7616,7.4807,-49.2621,58.5321,-161.6242,-81.3653
7.30,-0.1399,-3.7431,7.4779,-49.3370,58.6817,-162.6110,-81.3814
7.32,-0.1398,-3.7247,7.4751,-49.4115,58.8312,-163.5992,-81.3973
7.34,-0.1397,-3.7063,7.4723,-49.4856,58.9806,-164.5889,-81.4132
7.36,-0.1396,-3.6879,7.4696,-49.5593,59.1300,-165.5801,-81.4289
7.38,-0.1395,-3.6697,7.4668,-49.6327,59.2793,-166.5728,-81.4446
7.40,-0.1394,-3.6515,7.4640,-49.7058,59.4286,-167.5669,-81.4601
7.42,-0.1393,-3.6333,7.4612,-49.7784,59.5779,-168.5625,-81.4755
7.44,-0.1392,-3.6153,7.4584,-49.8507,59.7270,-169.5595,-81.4908
7.46,-0.1391,-3.5973,7.4556,-49.9227,59.8761,-170.5579,-81.5060
7.48,-0.1390,-3.5793,7.4528,-49.9943,60.0252,-171.5578,-81.5211
7.50,-0.1389,-3.5614,7.4501,-50.0655,60.1742,-172.5591,-81.5361
7.52,-0.1388,-3.5436,7.4473,-50.1364,60.3231,-173.5618,-81.5510
7.54,-0.1387,-3.5259,7.4445,-50.2069,60.4720,-174.5660,-81.5658
7.56,-0.1386,-3.5082,7.4417,-50.2771,60.6209,-175.5715,-81.5805
7.58,-0.1384,-3.4905,7.4390,-50.3469,60.7696,-176.5785,-81.5951
7.60,-0.1383,-3.4730,7.4362,-50.4163,60.9184,-177.5868,-81.6096
7.62,-0.1382,-3.4555,7.4334,-50.4854,61.0670,-178.5965,-81.6240
7.64,-0.1381,-3.4381,7.4307,-50.5542,61.2156,-179.6076,-81.6383
7.66,-0.1380,-3.4207,7.4279,-50.6226,61.3642,-180.6200,-81.6525
7.68,-0.1379,-3.4034,7.4252,-50.6907,61.5127,-181.6338,-81.6666
7.70,-0.1378,-3.3861,7.4224,-50.7584,61.6612,-182.6490,-81.6806
7.72,-0.1377,-3.3690,7.4197,-50.8258,61.8096,-183.6655,-81.6945
7.74,-0.1376,-3.3518,7.4169,-50.8928,61.9579,-184.6834,-81.7083
7.76,-0.1375,-3.3348,7.4142,-50.9595,62.1062,-185.7026,-81.7221
7.78,-0.1374,-3.3178,7.4114,-51.0259,62.2544,-186.7231,-81.7357
7.80,-0.1373,-3.3009,7.4087,-51.0919,62.4026,-187.7449,-81.7492
7.82,-0.1372,-3.2840,7.4059,-51.1576,62.5507,-188.7681,-81.7627
7.84,-0.1371,-3.2673,7.4032,-51.2229,62.6988,-189.7925,-81.7761
7.86,-0.1370,-3.2505,7.4004,-51.2879,62.8468,-190.8183,-81.7894
7.88,-0.1369,-3.2339,7.3977,-51.3526,62.9947,-191.8454,-81.8025
7.90,-0.1368,-3.2173,7.3950,-51.4169,63.1426,-192.8737,-81.8157
7.92,-0.1367,-3.2007,7.3922,-51.4810,63.2905,-193.9033,-81.8287
7.94,-0.1366,-3.1843,7.3895,-51.5446,63.4382,-194.9342,-81.8416
7.96,-0.1365,-3.1679,7.3868,-51.6080,63.5860,-195.9664,-81.8545
7.98,-0.1364,-3.1515,7.3840,-51.6710,63.7337,-196.9998,-81.8672
8.00,-0.1363,-3.1353,7.3813,-51.7337,63.8813,-198.0345,-81.8799
8.02,-0.1362,-3.1190,7.3786,-51.7961,64.0289,-199.0704,-81.8925
8.04,-0.1361,-3.1029,7.3759,-51.8582,64.1764,-200.1075,-81.9050
8.06,-0.1360,-3.0868,7.3731,-51.9199,64.3238,-201.1459,-81.9175
8.08,-0.1359,-3.0708,7.3704,-51.9813,64.4713,-202.1856,-81.9298
8.10,-0.1358,-3.0549,7.3677,-52.0424,64.6186,-203.2264,-81.9421
8.12,-0.1357,-3.0390,7.3650,-52.1032,64.7659,-204.2685,-81.9543
8.14,-0.1356,-3.0231,7.3623,-52.1637,64.9132,-205.3118,-81.9665
8.16,-0.1355,-3.0074,7.3596,-52.2238,65.0603,-206.3562,-81.9785
8.18,-0.1354,-2.9917,7.3569,-52.2837,65.2075,-207.4019,-81.9905
8.20,-0.1353,-2.9760,7.3542,-52.3432,65.3546,-208.4488,-82.0024
8.22,-0.1352,-2.9605,7.3514,-52.4024,65.5016,-209.4968,-82.0142
8.24,-0.1351,-2.9450,7.3487,-52.4613,65.6486,-210.5460,-82.0259
8.26,-0.1350,-2.9295,7.3460,-52.5199,65.7955,-211.5964,-82.0376
8.28,-0.1349,-2.9142,7.3433,-52.5782,65.9424,-212.6480,-82.0492
8.30,-0.1348,-2.8988,7.3407,-52.6361,66.0892,-213.7007,-82.0607
8.32,-0.1347,-2.8836,7.3380,-52.6938,66.2359,-214.7546,-82.0722
8.34,-0.1346,-2.8684,7.3353,-52.7512,66.3826,-215.8096,-82.0836
8.36,-0.1345,-2.8533,7.3326,-52.8082,66.5293,-216.8658,-82.0949
8.38,-0.1344,-2.8382,7.3299,-52.8650,66.6759,-217.9231,-82.1061
8.40,-0.1343,-2.8232,7.3272,-52.9215,66.8224,-218.9815,-82.1173
8.42,-0.1342,-2.8083,7.3245,-52.9776,66.9689,-220.0411,-82.1284
8.44,-0.1341,-2.7934,7.3218,-53.0335,67.1154,-221.1017,-82.1394
8.46,-0.1340,-2.7786,7.3192,-53.0891,67.2617,-222.1635,-82.1504
8.48,-0.1339,-2.7639,7.3165,-53.1444,67.4081,-223.2264,-82.1613
8.50,-0.1338,-2.7492,7.3138,-53.1993,67.5543,-224.2904,-82.1721
8.52,-0.1337,-2.7346,7.3111,-53.2540,67.7006,-225.3555,-82.1829
8.54,-0.1336,-2.7200,7.3084,-53.3084,67.8467,-226.4216,-82.1936
8.56,-0.1335,-2.7055,7.3058,-53.3625,67.9928,-227.4889,-82.2042
8.58,-0.1334,-2.6911,7.3031,-53.4164,68.1389,-228.5572,-82.2148
8.60,-0.1333,-2.6767,7.3004,-53.4699,68.2849,-229.6266,-82.2253
8.62,-0.1332,-2.6624,7.2978,-53.5231,68.4309,-230.6971,-82.2357
8.64,-0.1331,-2.6482,7.2951,-53.5761,68.5768,-231.7686,-82.2461
8.66,-0.1330,-2.6340,7.2925,-53.6288,68.7226,-232.8412,-82.2564
8.68,-0.1329,-2.6199,7.2898,-53.6812,68.8684,-233.9148,-82.2667
8.70,-0.1329,-2.6058,7.2871,-53.7333,69.0142,-234.9895,-82.2768
8.72,-0.1328,-2.5918,7.2845,-53.7851,69.1599,-236.0652,-82.2870
8.74,-0.1327,-2.5779,7.2818,-53.8367,69.3055,-237.1419,-82.2970
8.76,-0.1326,-2.5640,7.2792,-53.8880,69.4511,-238.2197,-82.3071
8.78,-0.1325,-2.5502,7.2765,-53.9390,69.5966,-239.2985,-82.3170
8.80,-0.1324,-2.5365,7.2739,-53.9897,69.7421,-240.3782,-82.3269
8.82,-0.1323,-2.5228,7.2712,-54.0402,69.8875,-241.4590,-82.3367
8.84,-0.1322,-2.5092,7.2686,-54.0904,70.0329,-242.5409,-82.3465
8.86,-0.1321,-2.4956,7.2660,-54.1403,70.1782,-243.6237,-82.3562
8.88,-0.1320,-2.4821,7.2633,-54.1899,70.3235,-244.7075,-82.3659
8.90,-0.1319,-2.4686,7.2607,-54.2393,70.4687,-245.7922,-82.3755
8.92,-0.1318,-2.4553,7.2580,-54.2884,70.6138,-246.8780,-82.3850
8.94,-0.1317,-2.4419,7.2554,-54.3372,70.7589,-247.9648,-82.3945
8.96,-0.1316,-2.4287,7.2528,-54.3858,70.9040,-249.0525,-82.4040
8.98,-0.1315,-2.4155,7.2501,-54.4341,71.0490,-250.1412,-82.4134
9.00,-0.1314,-2.4023,7.2475,-54.4821,71.1940,-251.2308,-82.4227
9.02,-0.1313,-2.3892,7.2449,-54.5299,71.3389,-252.3214,-82.4320
9.04,-0.1312,-2.3762,7.2423,-54.5775,71.4837,-253.4129,-82.4412
9.06,-0.1311,-2.3633,7.2396,-54.6247,71.6285,-254.5054,-82.4504
9.08,-0.1310,-2.3503,7.2370,-54.6717,71.7732,-255.5989,-82.4595
9.10,-0.1309,-2.3375,7.2344,-54.7185,71.9179,-256.6932,-82.4685
9.12,-0.1308,-2.3247,7.2318,-54.7650,72.0626,-257.7885,-82.4775
9.14,-0.1307,-2.3120,7.2292,-54.8112,72.2071,-258.8848,-82.4865
9.16,-0.1307,-2.2993,7.2266,-54.8572,72.3517,-259.9819,-82.4954
9.18,-0.1306,-2.2867,7.2239,-54.9029,72.4961,-261.0800,-82.5043
9.20,-0.1305,-2.2742,7.2213,-54.9484,72.6406,-262.1789,-82.5131
9.22,-0.1304,-2.2617,7.2187,-54.9937,72.7849,-263.2788,-82.5218
9.24,-0.1303,-2.2492,7.2161,-55.0386,72.9293,-264.3796,-82.5305
9.26,-0.1302,-2.2369,7.2135,-55.0834,73.0735,-265.4813,-82.5392
9.28,-0.1301,-2.2246,7.2109,-55.1279,73.2178,-266.5838,-82.5478
9.30,-0.1300,-2.2123,7.2083,-55.1721,73.3619,-267.6873,-82.5564
9.32,-0.1299,-2.2001,7.2057,-55.2161,73.5060,-268.7916,-82.5649
9.34,-0.1298,-2.1880,7.2031,-55.2599,73.6501,-269.8968,-82.5734
9.36,-0.1297,-2.1759,7.2005,-55.3034,73.7941,-271.0028,-82.5818
9.38,-0.1296,-2.1638,7.1979,-55.3467,73.9381,-272.1098,-82.5902
9.40,-0.1295,-2.1519,7.1953,-55.3897,74.0820,-273.2176,-82.5985
9.42,-0.1294,-2.1400,7.1928,-55.4325,74.2258,-274.3262,-82.6068
9.44,-0.1293,-2.1281,7.1902,-55.4751,74.3696,-275.4357,-82.6150
9.46,-0.1292,-2.1163,7.1876,-55.5174,74.5134,-276.5461,-82.6232
9.48,-0.1292,-2.1045,7.1850,-55.5595,74.6571,-277.6573,-82.6314
9.50,-0.1291,-2.0929,7.1824,-55.6013,74.8007,-278.7693,-82.6395
9.52,-0.1290,-2.0812,7.1798,-55.6430,74.9443,-279.8821,-82.6475
9.54,-0.1289,-2.0697,7.1773,-55.6844,75.0879,-280.9958,-82.6555
9.56,-0.1288,-2.0581,7.1747,-55.7255,75.2314,-282.1103,-82.6635
9.58,-0.1287,-2.0467,7.1721,-55.7665,75.3748,-283.2257,-82.6714
9.60,-0.1286,-2.0353,7.1695,-55.8072,75.5182,-284.3418,-82.6793
9.62,-0.1285,-2.0239,7.1670,-55.8476,75.6615,-285.4588,-82.6872
9.64,-0.1284,-2.0126,7.1644,-55.8879,75.8048,-286.5765,-82.6950
9.66,-0.1283,-2.0014,7.1618,-55.9279,75.9481,-287.6951,-82.7027
9.68,-0.1282,-1.9902,7.1593,-55.9677,76.0913,-288.8144,-82.7104
9.70,-0.1281,-1.9790,7.1567,-56.0073,76.2344,-289.9346,-82.7181
9.72,-0.1280,-1.9680,7.1542,-56.0467,76.3775,-291.0555,-82.7257
9.74,-0.1280,-1.9569,7.1516,-56.0858,76.5205,-292.1772,-82.7333
9.76,-0.1279,-1.9460,7.1490,-56.1247,76.6635,-293.2997,-82.7409
9.78,-0.1278,-1.9350,7.1465,-56.1634,76.8064,-294.4230,-82.7484
9.80,-0.1277,-1.9242,7.1439,-56.2019,76.9493,-295.5470,-82.7559
9.82,-0.1276,-1.9134,7.1414,-56.2402,77.0921,-296.6718,-82.7633
9.84,-0.1275,-1.9026,7.1388,-56.2782,77.2349,-297.7974,-82.7707
9.86,-0.1274,-1.8919,7.1363,-56.3161,77.3776,-298.9237,-82.7781
9.88,-0.1273,-1.8813,7.1337,-56.3537,77.5203,-300.0508,-82.7854
9.90,-0.1272,-1.8707,7.1312,-56.3911,77.6629,-301.1786,-82.7927
9.92,-0.1271,-1.8601,7.1286,-56.4283,77.8055,-302.3072,-82.7999
9.94,-0.1270,-1.8496,7.1261,-56.4653,77.9480,-303.4365,-82.8071
9.96,-0.1270,-1.8392,7.1236,-56.5021,78.0905,-304.5665,-82.8143
9.98,-0.1269,-1.8288,7.1210,-56.5387,78.2329,-305.6973,-82.8214
10.00,-0.1268,-1.8185,7.1185,-56.5750,78.3753,-306.8288,-82.8285
10.02,-0.1267,-1.8082,7.1160,-56.6112,78.5176,-307.9610,-82.8356
10.04,-0.1266,-1.7979,7.1134,-56.6471,78.6599,-309.0940,-82.8426
10.06,-0.1265,-1.7878,7.1109,-56.6829,78.8021,-310.2276,-82.8496
10.08,-0.1264,-1.7776,7.1084,-56.7184,78.9443,-311.3620,-82.8565
10.10,-0.1263,-1.7675,7.1058,-56.7538,79.0864,-312.4971,-82.8634
10.12,-0.1262,-1.7575,7.1033,-56.7890,79.2284,-313.6329,-82.8703
10.14,-0.1261,-1.7475,7.1008,-56.8239,79.3705,-314.7693,-82.8772
10.16,-0.1261,-1.7376,7.0983,-56.8587,79.5124,-315.9065,-82.8840
10.18,-0.1260,-1.7277,7.0958,-56.8932,79.6543,-317.0444,-82.8908
10.20,-0.1259,-1.7179,7.0932,-56.9276,79.7962,-318.1829,-82.8975
10.22,-0.1258,-1.7081,7.0907,-56.9617,79.9380,-319.3222,-82.9042
10.24,-0.1257,-1.6984,7.0882,-56.9957,80.0798,-320.4621,-82.9109
10.26,-0.1256,-1.6887,7.0857,-57.0295,80.2215,-321.6027,-82.9175
10.28,-0.1255,-1.6791,7.0832,-57.0631,80.3632,-322.7439,-82.9241
10.30,-0.1254,-1.6695,7.0807,-57.0964,80.5048,-323.8858,-82.9307
10.32,-0.1253,-1.6600,7.0782,-57.1296,80.6463,-325.0284,-82.9372
10.34,-0.1253,-1.6505,7.0757,-57.1627,80.7878,-326.1717,-82.9438
10.36,-0.1252,-1.6411,7.0732,-57.1955,80.9293,-327.3156,-82.9502
10.38,-0.1251,-1.6317,7.0707,-57.2281,81.0707,-328.4602,-82.9567
10.40,-0.1250,-1.6224,7.0682,-57.2606,81.2121,-329.6054,-82.9631
10.42,-0.1249,-1.6131,7.0657,-57.2928,81.3534,-330.7512,-82.9695
10.44,-0.1248,-1.6038,7.0632,-57.3249,81.4947,-331.8977,-82.9758
10.46,-0.1247,-1.5946,7.0607,-57.3568,81.6359,-333.0449,-82.9821
10.48,-0.1246,-1.5855,7.0582,-57.3885,81.7770,-334.1926,-82.9884
10.50,-0.1245,-1.5764,7.0557,-57.4200,81.9181,-335.3410,-82.9947
10.52,-0.1245,-1.5674,7.0532,-57.4514,82.0592,-336.4901,-83.0009
10.54,-0.1244,-1.5583,7.0507,-57.4825,82.2002,-337.6397,-83.0071
10.56,-0.1243,-1.5494,7.0482,-57.5135,82.3412,-338.7900,-83.0133
10.58,-0.1242,-1.5405,7.0457,-57.5443,82.4821,-339.9409,-83.0194
10.60,-0.1241,-1.5316,7.0433,-57.5750,82.6230,-341.0924,-83.0256
10.62,-0.1240,-1.5228,7.0408,-57.6054,82.7638,-342.2445,-83.0316
10.64,-0.1239,-1.5140,7.0383,-57.6357,82.9046,-343.3972,-83.0377
10.66,-0.1238,-1.5053,7.0358,-57.6658,83.0453,-344.5505,-83.0437
10.68,-0.1238,-1.4966,7.0333,-57.6957,83.1859,-345.7044,-83.0497
10.70,-0.1237,-1.4880,7.0309,-57.7255,83.3266,-346.8589,-83.0557
10.72,-0.1236,-1.4794,7.0284,-57.7551,83.4671,-348.0140,-83.0616
10.74,-0.1235,-1.4709,7.0259,-57.7845,83.6076,-349.1697,-83.0675
10.76,-0.1234,-1.4624,7.0235,-57.8138,83.7481,-350.3260,-83.0734
10.78,-0.1233,-1.4539,7.0210,-57.8428,83.8885,-351.4829,-83.0793
10.80,-0.1232,-1.4455,7.0185,-57.8717,84.0289,-352.6403,-83.0851
10.82,-0.1231,-1.4372,7.0161,-57.9005,84.1692,-353.7983,-83.0909
10.84,-0.1231,-1.4288,7.0136,-57.9291,84.3095,-354.9569,-83.0967
10.86,-0.1230,-1.4206,7.0111,-57.9575,84.4497,-356.1160,-83.1024
10.88,-0.1229,-1.4123,7.0087,-57.9857,84.5899,-357.2757,-83.1081
10.90,-0.1228,-1.4041,7.0062,-58.0138,84.7300,-358.4360,-83.1138
10.92,-0.1227,-1.3960,7.0038,-58.0417,84.8701,-359.5969,-83.1195
10.94,-0.1226,-1.3879,7.0013,-58.0695,85.0101,-360.7582,-83.1251
10.96,-0.1225,-1.3798,6.9989,-58.0971,85.1501,-361.9202,-83.1308
10.98,-0.1225,-1.3718,6.9964,-58.1245,85.2900,-363.0827,-83.1364
11.00,-0.1224,-1.3639,6.9940,-58.1518,85.4299,-364.2457,-83.1419
11.02,-0.1223,-1.3559,6.9915,-58.1789,85.5697,-365.4093,-83.1475
11.04,-0.1222,-1.3480,6.9891,-58.2059,85.7095,-366.5734,-83.1530
11.06,-0.1221,-1.3402,6.9866,-58.2327,85.8492,-367.7381,-83.1585
11.08,-0.1220,-1.3324,6.9842,-58.2593,85.9889,-368.9033,-83.1639
11.10,-0.1219,-1.3246,6.9818,-58.2858,86.1286,-370.0690,-83.1694
11.12,-0.1219,-1.3169,6.9793,-58.3122,86.2682,-371.2352,-83.1748
11.14,-0.1218,-1.3092,6.9769,-58.3383,86.4077,-372.4020,-83.1802
11.16,-0.1217,-1.3016,6.9745,-58.3644,86.5472,-373.5693,-83.1855
11.18,-0.1216,-1.2940,6.9720,-58.3903,86.6866,-374.7371,-83.1909
11.20,-0.1215,-1.2864,6.9696,-58.4160,86.8260,-375.9054,-83.1962
11.22,-0.1214,-1.2789,6.9672,-58.4416,86.9654,-377.0742,-83.2015
11.24,-0.1214,-1.2715,6.9647,-58.4670,87.1047,-378.2436,-83.2068
11.26,-0.1213,-1.2640,6.9623,-58.4923,87.2439,-379.4134,-83.2120
11.28,-0.1212,-1.2566,6.9599,-58.5174,87.3831,-380.5838,-83.2173
11.30,-0.1211,-1.2493,6.9575,-58.5424,87.5222,-381.7546,-83.2225
11.32,-0.1210,-1.2420,6.9551,-58.5672,87.6613,-382.9259,-83.2277
11.34,-0.1209,-1.2347,6.9526,-58.5919,87.8004,-384.0978,-83.2328
11.36,-0.1208,-1.2275,6.9502,-58.6165,87.9394,-385.2701,-83.2380
11.38,-0.1208,-1.2203,6.9478,-58.6409,88.0784,-386.4429,-83.2431
11.40,-0.1207,-1.2131,6.9454,-58.6651,88.2173,-387.6162,-83.2482
11.42,-0.1206,-1.2060,6.9430,-58.6893,88.3561,-388.7900,-83.2532
11.44,-0.1205,-1.1989,6.9406,-58.7132,88.4949,-389.9643,-83.2583
11.46,-0.1204,-1.1919,6.9382,-58.7371,88.6337,-391.1390,-83.2633
11.48,-0.1203,-1.1849,6.9357,-58.7608,88.7724,-392.3142,-83.2683
11.50,-0.1203,-1.1779,6.9333,-58.7843,88.9111,-393.4899,-83.2733
11.52,-0.1202,-1.1710,6.9309,-58.8078,89.0497,-394.6661,-83.2783
11.54,-0.1201,-1.1641,6.9285,-58.8310,89.1883,-395.8427,-83.2832
11.56,-0.1200,-1.1573,6.9261,-58.8542,89.3268,-397.0198,-83.2881
11.58,-0.1199,-1.1505,6.9237,-58.8772,89.4653,-398.1973,-83.2930
11.60,-0.1198,-1.1437,6.9213,-58.9001,89.6037,-399.3753,-83.2979
11.62,-0.1198,-1.1370,6.9189,-58.9228,89.7421,-400.5538,-83.3028
11.64,-0.1197,-1.1303,6.9166,-58.9454,89.8804,-401.7327,-83.3076
11.66,-0.1196,-1.1236,6.9142,-58.9679,90.0187,-402.9121,-83.3124
11.68,-0.1195,-1.1170,6.9118,-58.9902,90.1569,-404.0919,-83.3172
11.70,-0.1194,-1.1104,6.9094,-59.0124,90.2951,-405.2721,-83.3220
11.72,-0.1193,-1.1038,6.9070,-59.0345,90.4333,-406.4528,-83.3268
11.74,-0.1193,-1.0973,6.9046,-59.0564,90.5713,-407.6339,-83.3315
11.76,-0.1192,-1.0908,6.9022,-59.0783,90.7094,-408.8155,-83.3362
11.78,-0.1191,-1.0844,6.8998,-59.1000,90.8474,-409.9975,-83.3409
11.80,-0.1190,-1.0780,6.8975,-59.1215,90.9853,-411.1799,-83.3456
11.82,-0.1189,-1.0716,6.8951,-59.1429,91.1232,-412.3628,-83.3503
11.84,-0.1189,-1.0653,6.8927,-59.1643,91.2611,-413.5461,-83.3549
11.86,-0.1188,-1.0590,6.8903,-59.1854,91.3989,-414.7298,-83.3596
11.88,-0.1187,-1.0527,6.8880,-59.2065,91.5367,-415.9139,-83.3642
11.90,-0.1186,-1.0465,6.8856,-59.2274,91.6744,-417.0985,-83.3687
11.92,-0.1185,-1.0403,6.8832,-59.2482,91.8120,-418.2834,-83.3733
11.94,-0.1184,-1.0341,6.8808,-59.2689,91.9497,-419.4688,-83.3779
11.96,-0.1184,-1.0280,6.8785,-59.2895,92.0872,-420.6546,-83.3824
11.98,-0.1183,-1.0219,6.8761,-59.3099,92.2247,-421.8408,-83.3869
12.00,-0.1182,-1.0158,6.8738,-59.3302,92.3622,-423.0274,-83.3914
12.02,-0.1181,-1.0098,6.8714,-59.3504,92.4996,-424.2144,-83.3959
12.04,-0.1180,-1.0038,6.8690,-59.3705,92.6370,-425.4018,-83.4004
12.06,-0.1180,-0.9979,6.8667,-59.3904,92.7744,-426.5896,-83.4048
12.08,-0.1179,-0.9919,6.8643,-59.4103,92.9116,-427.7778,-83.4092
12.10,-0.1178,-0.9860,6.8620,-59.4300,93.0489,-428.9664,-83.4136
12.12,-0.1177,-0.9802,6.8596,-59.4496,93.1861,-430.1554,-83.4180
12.14,-0.1176,-0.9744,6.8572,-59.4691,93.3232,-431.3448,-83.4224
12.16,-0.1176,-0.9686,6.8549,-59.4885,93.4603,-432.5346,-83.4268
12.18,-0.1175,-0.9628,6.8525,-59.5077,93.5974,-433.7247,-83.4311
12.20,-0.1174,-0.9571,6.8502,-59.5269,93.7344,-434.9153,-83.4354
12.22,-0.1173,-0.9514,6.8479,-59.5459,93.8713,-436.1062,-83.4397
12.24,-0.1172,-0.9457,6.8455,-59.5648,94.0082,-437.2975,-83.4440
12.26,-0.1172,-0.9401,6.8432,-59.5836,94.1451,-438.4891,-83.4483
12.28,-0.1171,-0.9345,6.8408,-59.6023,94.2819,-439.6812,-83.4526
12.30,-0.1170,-0.9289,6.8385,-59.6209,94.4187,-440.8736,-83.4568
12.32,-0.1169,-0.9234,6.8361,-59.6393,94.5554,-442.0664,-83.4610
12.34,-0.1168,-0.9179,6.8338,-59.6577,94.6921,-443.2595,-83.4652
12.36,-0.1168,-0.9124,6.8315,-59.6760,94.8287,-444.4531,-83.4694
12.38,-0.1167,-0.9070,6.8291,-59.6941,94.9653,-445.6469,-83.4736
12.40,-0.1166,-0.9015,6.8268,-59.7121,95.1018,-446.8412,-83.4778
12.42,-0.1165,-0.8962,6.8245,-59.7300,95.2383,-448.0358,-83.4819
12.44,-0.1164,-0.8908,6.8221,-59.7479,95.3748,-449.2307,-83.4860
12.46,-0.1164,-0.8855,6.8198,-59.7656,95.5112,-450.4261,-83.4902
12.48,-0.1163,-0.8802,6.8175,-59.7832,95.6475,-451.6217,-83.4943
12.50,-0.1162,-0.8749,6.8152,-59.8007,95.7838,-452.8177,-83.4983
12.52,-0.1161,-0.8697,6.8129,-59.8181,95.9201,-454.0141,-83.5024
12.54,-0.1160,-0.8645,6.8105,-59.8354,96.0563,-455.2108,-83.5065
12.56,-0.1160,-0.8593,6.8082,-59.8525,96.1925,-456.4079,-83.5105
12.58,-0.1159,-0.8542,6.8059,-59.8696,96.3286,-457.6052,-83.5145
12.60,-0.1158,-0.8491,6.8036,-59.8866,96.4646,-458.8030,-83.5186
12.62,-0.1157,-0.8440,6.8013,-59.9035,96.6007,-460.0010,-83.5225
12.64,-0.1156,-0.8389,6.7989,-59.9203,96.7366,-461.1995,-83.5265
12.66,-0.1156,-0.8339,6.7966,-59.9369,96.8726,-462.3982,-83.5305
12.68,-0.1155,-0.8289,6.7943,-59.9535,97.0085,-463.5973,-83.5344
12.70,-0.1154,-0.8239,6.7920,-59.9700,97.1443,-464.7967,-83.5384
12.72,-0.1153,-0.8190,6.7897,-59.9864,97.2801,-465.9964,-83.5423
12.74,-0.1153,-0.8141,6.7874,-60.0027,97.4158,-467.1964,-83.5462
12.76,-0.1152,-0.8092,6.7851,-60.0188,97.5516,-468.3968,-83.5501
12.78,-0.1151,-0.8043,6.7828,-60.0349,97.6872,-469.5975,-83.5540
12.80,-0.1150,-0.7995,6.7805,-60.0509,97.8228,-470.7985,-83.5579
12.82,-0.1149,-0.7947,6.7782,-60.0668,97.9584,-471.9999,-83.5617
12.84,-0.1149,-0.7899,6.7759,-60.0826,98.0939,-473.2015,-83.5656
12.86,-0.1148,-0.7852,6.7736,-60.0983,98.2294,-474.4035,-83.5694
12.88,-0.1147,-0.7805,6.7713,-60.1139,98.3648,-475.6058,-83.5732
12.90,-0.1146,-0.7758,6.7690,-60.1294,98.5002,-476.8084,-83.5770
12.92,-0.1145,-0.7711,6.7667,-60.1449,98.6355,-478.0113,-83.5808
12.94,-0.1145,-0.7665,6.7644,-60.1602,98.7708,-479.2145,-83.5846
12.96,-0.1144,-0.7619,6.7622,-60.1754,98.9060,-480.4180,-83.5883
12.98,-0.1143,-0.7573,6.7599,-60.1906,99.0412,-481.6218,-83.5921
13.00,-0.1142,-0.7527,6.7576,-60.2056,99.1764,-482.8259,-83.5958
13.02,-0.1142,-0.7482,6.7553,-60.2206,99.3115,-484.0303,-83.5995
13.04,-0.1141,-0.7437,6.7530,-60.2355,99.4466,-485.2350,-83.6033
13.06,-0.1140,-0.7392,6.7507,-60.2503,99.5816,-486.4400,-83.6070
13.08,-0.1139,-0.7348,6.7485,-60.2650,99.7165,-487.6453,-83.6106
13.10,-0.1139,-0.7303,6.7462,-60.2796,99.8515,-488.8509,-83.6143
13.12,-0.1138,-0.7259,6.7439,-60.2941,99.9863,-490.0568,-83.6180
13.14,-0.1137,-0.7216,6.7416,-60.3085,100.1212,-491.2630,-83.6216
13.16,-0.1136,-0.7172,6.7394,-60.3229,100.2560,-492.4694,-83.6253
13.18,-0.1135,-0.7129,6.7371,-60.3371,100.3907,-493.6762,-83.6289
13.20,-0.1135,-0.7086,6.7348,-60.3513,100.5254,-494.8832,-83.6325
13.22,-0.1134,-0.7043,6.7326,-60.3654,100.6601,-496.0905,-83.6361
13.24,-0.1133,-0.7001,6.7303,-60.3794,100.7947,-497.2981,-83.6397
13.26,-0.1132,-0.6958,6.7280,-60.3933,100.9292,-498.5060,-83.6433
13.28,-0.1132,-0.6916,6.7258,-60.4071,101.0637,-499.7141,-83.6468
13.30,-0.1131,-0.6874,6.7235,-60.4209,101.1982,-500.9225,-83.6504
13.32,-0.1130,-0.6833,6.7212,-60.4345,101.3326,-502.1312,-83.6539
13.34,-0.1129,-0.6792,6.7190,-60.4481,101.4670,-503.3402,-83.6574
13.36,-0.1129,-0.6751,6.7167,-60.4616,101.6013,-504.5494,-83.6610
13.38,-0.1128,-0.6710,6.7145,-60.4750,101.7356,-505.7589,-83.6645
13.40,-0.1127,-0.6669,6.7122,-60.4884,101.8699,-506.9687,-83.6680
13.42,-0.1126,-0.6629,6.7100,-60.5016,102.0041,-508.1787,-83.6715
13.44,-0.1126,-0.6589,6.7077,-60.5148,102.1382,-509.3890,-83.6749
13.46,-0.1125,-0.6549,6.7055,-60.5279,102.2723,-510.5996,-83.6784
13.48,-0.1124,-0.6509,6.7032,-60.5409,102.4064,-511.8104,-83.6818
13.50,-0.1123,-0.6470,6.7010,-60.5539,102.5404,-513.0214,-83.6853
13.52,-0.1123,-0.6431,6.6987,-60.5667,102.6744,-514.2328,-83.6887
13.54,-0.1122,-0.6392,6.6965,-60.5795,102.8083,-515.4444,-83.6921
13.56,-0.1121,-0.6353,6.6942,-60.5922,102.9422,-516.6562,-83.6955
13.58,-0.1120,-0.6315,6.6920,-60.6049,103.0761,-517.8683,-83.6989
13.60,-0.1120,-0.6276,6.6898,-60.6174,103.2098,-519.0807,-83.7023
13.62,-0.1119,-0.6238,6.6875,-60.6299,103.3436,-520.2933,-83.7057
13.64,-0.1118,-0.6200,6.6853,-60.6423,103.4773,-521.5061,-83.7090
13.66,-0.1117,-0.6163,6.6830,-60.6546,103.6110,-522.7192,-83.7124
13.68,-0.1117,-0.6125,6.6808,-60.6669,103.7446,-523.9325,-83.7157
13.70,-0.1116,-0.6088,6.6786,-60.6790,103.8782,-525.1461,-83.7191
13.72,-0.1115,-0.6051,6.6763,-60.6911,104.0117,-526.3599,-83.7224
13.74,-0.1114,-0.6015,6.6741,-60.7032,104.1452,-527.5740,-83.7257
13.76,-0.1114,-0.5978,6.6719,-60.7151,104.2786,-528.7883,-83.7290
13.78,-0.1113,-0.5942,6.6697,-60.7270,104.4120,-530.0028,-83.7323
13.80,-0.1112,-0.5906,6.6674,-60.7388,104.5453,-531.2176,-83.7356
13.82,-0.1111,-0.5870,6.6652,-60.7506,104.6786,-532.4326,-83.7389
13.84,-0.1111,-0.5834,6.6630,-60.7622,104.8119,-533.6479,-83.7421
13.86,-0.1110,-0.5799,6.6608,-60.7738,104.9451,-534.8634,-83.7454
13.88,-0.1109,-0.5764,6.6586,-60.7854,105.0783,-536.0791,-83.7486
13.90,-0.1108,-0.5729,6.6563,-60.7968,105.2114,-537.2950,-83.7519
13.92,-0.1108,-0.5694,6.6541,-60.8082,105.3445,-538.5112,-83.7551
13.94,-0.1107,-0.5659,6.6519,-60.8195,105.4775,-539.7275,-83.7583
13.96,-0.1106,-0.5625,6.6497,-60.8308,105.6105,-540.9442,-83.7615
13.98,-0.1105,-0.5590,6.6475,-60.8419,105.7435,-542.1610,-83.7647
14.00,-0.1105,-0.5556,6.6453,-60.8531,105.8764,-543.3781,-83.7679
14.02,-0.1104,-0.5523,6.6431,-60.8641,106.0093,-544.5953,-83.7711
14.04,-0.1103,-0.5489,6.6409,-60.8751,106.1421,-545.8128,-83.7742
14.06,-0.1103,-0.5456,6.6387,-60.8860,106.2748,-547.0306,-83.7774
14.08,-0.1102,-0.5422,6.6365,-60.8968,106.4076,-548.2485,-83.7805
14.10,-0.1101,-0.5389,6.6343,-60.9076,106.5403,-549.4667,-83.7837
14.12,-0.1100,-0.5357,6.6321,-60.9183,106.6729,-550.6850,-83.7868
14.14,-0.1100,-0.5324,6.6299,-60.9290,106.8055,-551.9036,-83.7899
14.16,-0.1099,-0.5291,6.6277,-60.9396,106.9380,-553.1224,-83.7930
14.18,-0.1098,-0.5259,6.6255,-60.9501,107.0706,-554.3414,-83.7961
14.20,-0.1097,-0.5227,6.6233,-60.9605,107.2030,-555.5606,-83.7992
14.22,-0.1097,-0.5195,6.6211,-60.9709,107.3354,-556.7800,-83.8023
14.24,-0.1096,-0.5164,6.6189,-60.9812,107.4678,-557.9997,-83.8054
14.26,-0.1095,-0.5132,6.6167,-60.9915,107.6002,-559.2195,-83.8085
14.28,-0.1095,-0.5101,6.6145,-61.0017,107.7324,-560.4395,-83.8115
14.30,-0.1094,-0.5070,6.6123,-61.0119,107.8647,-561.6598,-83.8146
14.32,-0.1093,-0.5039,6.6101,-61.0219,107.9969,-562.8802,-83.8176
14.34,-0.1092,-0.5008,6.6079,-61.0319,108.1291,-564.1008,-83.8206
14.36,-0.1092,-0.4978,6.6058,-61.0419,108.2612,-565.3217,-83.8237
14.38,-0.1091,-0.4947,6.6036,-61.0518,108.3932,-566.5427,-83.8267
14.40,-0.1090,-0.4917,6.6014,-61.0616,108.5253,-567.7639,-83.8297
14.42,-0.1089,-0.4887,6.5992,-61.0714,108.6573,-568.9854,-83.8327
14.44,-0.1089,-0.4857,6.5970,-61.0811,108.7892,-570.2070,-83.8357
14.46,-0.1088,-0.4827,6.5949,-61.0908,108.9211,-571.4288,-83.8387
14.48,-0.1087,-0.4798,6.5927,-61.1004,109.0529,-572.6508,-83.8416
14.50,-0.1087,-0.4769,6.5905,-61.1099,109.1848,-573.8730,-83.8446
14.52,-0.1086,-0.4739,6.5883,-61.1194,109.3165,-575.0954,-83.8476
14.54,-0.1085,-0.4711,6.5862,-61.1288,109.4482,-576.3180,-83.8505
14.56,-0.1084,-0.4682,6.5840,-61.1382,109.5799,-577.5407,-83.8535
14.58,-0.1084,-0.4653,6.5818,-61.1475,109.7116,-578.7637,-83.8564
14.60,-0.1083,-0.4625,6.5797,-61.1567,109.8432,-579.9868,-83.8593
14.62,-0.1082,-0.4596,6.5775,-61.1659,109.9747,-581.2101,-83.8623
14.64,-0.1082,-0.4568,6.5753,-61.1751,110.1062,-582.4336,-83.8652
14.66,-0.1081,-0.4540,6.5732,-61.1841,110.2377,-583.6573,-83.8681
14.68,-0.1080,-0.4513,6.5710,-61.1932,110.3691,-584.8812,-83.8710
14.70,-0.1079,-0.4485,6.5689,-61.2021,110.5005,-586.1052,-83.8739
14.72,-0.1079,-0.4457,6.5667,-61.2110,110.6318,-587.3294,-83.8767
14.74,-0.1078,-0.4430,6.5646,-61.2199,110.7631,-588.5538,-83.8796
14.76,-0.1077,-0.4403,6.5624,-61.2287,110.8943,-589.7784,-83.8825
14.78,-0.1077,-0.4376,6.5602,-61.2375,111.0256,-591.0032,-83.8853
14.80,-0.1076,-0.4349,6.5581,-61.2462,111.1567,-592.2281,-83.8882
14.82,-0.1075,-0.4323,6.5559,-61.2548,111.2878,-593.4532,-83.8910
14.84,-0.1075,-0.4296,6.5538,-61.2634,111.4189,-594.6785,-83.8939
14.86,-0.1074,-0.4270,6.5516,-61.2719,111.5499,-595.9039,-83.8967
14.88,-0.1073,-0.4244,6.5495,-61.2804,111.6809,-597.1295,-83.8995
14.90,-0.1072,-0.4218,6.5474,-61.2889,111.8119,-598.3553,-83.9023
14.92,-0.1072,-0.4192,6.5452,-61.2972,111.9428,-599.5812,-83.9052
14.94,-0.1071,-0.4166,6.5431,-61.3056,112.0736,-600.8073,-83.9080
14.96,-0.1070,-0.4141,6.5409,-61.3139,112.2045,-602.0336,-83.9107
14.98,-0.1070,-0.4115,6.5388,-61.3221,112.3352,-603.2601,-83.9135
15.00,-0.1069,-0.4090,6.5367,-61.3303,112.4660,-604.4867,-83.9163
15.02,-0.1068,-0.4065,6.5345,-61.3384,112.5967,-605.7134,-83.9191
15.04,-0.1067,-0.4040,6.5324,-61.3465,112.7273,-606.9404,-83.9219
15.06,-0.1067,-0.4015,6.5302,-61.3545,112.8579,-608.1675,-83.9246
15.08,-0.1066,-0.3991,6.5281,-61.3625,112.9885,-609.3947,-83.9274
15.10,-0.1065,-0.3966,6.5260,-61.3704,113.1190,-610.6221,-83.9301
15.12,-0.1065,-0.3942,6.5239,-61.3783,113.2495,-611.8497,-83.9329
15.14,-0.1064,-0.3918,6.5217,-61.3861,113.3799,-613.0774,-83.9356
15.16,-0.1063,-0.3894,6.5196,-61.3939,113.5103,-614.3053,-83.9383
15.18,-0.1063,-0.3870,6.5175,-61.4017,113.6407,-615.5333,-83.9410
15.20,-0.1062,-0.3846,6.5154,-61.4094,113.7710,-616.7615,-83.9437
15.22,-0.1061,-0.3822,6.5132,-61.4170,113.9012,-617.9898,-83.9465
15.24,-0.1061,-0.3799,6.5111,-61.4246,114.0314,-619.2183,-83.9492
15.26,-0.1060,-0.3775,6.5090,-61.4322,114.1616,-620.4470,-83.9518
15.28,-0.1059,-0.3752,6.5069,-61.4397,114.2918,-621.6758,-83.9545
15.30,-0.1058,-0.3729,6.5048,-61.4471,114.4219,-622.9047,-83.9572
15.32,-0.1058,-0.3706,6.5026,-61.4545,114.5519,-624.1338,-83.9599
15.34,-0.1057,-0.3684,6.5005,-61.4619,114.6819,-625.3630,-83.9626
15.36,-0.1056,-0.3661,6.4984,-61.4692,114.8119,-626.5924,-83.9652
15.38,-0.1056,-0.3638,6.4963,-61.4765,114.9418,-627.8220,-83.9679
15.40,-0.1055,-0.3616,6.4942,-61.4837,115.0717,-629.0516,-83.9705
15.42,-0.1054,-0.3594,6.4921,-61.4909,115.2015,-630.2814,-83.9732
15.44,-0.1054,-0.3572,6.4900,-61.4981,115.3313,-631.5114,-83.9758
15.46,-0.1053,-0.3550,6.4879,-61.5052,115.4611,-632.7415,-83.9784
15.48,-0.1052,-0.3528,6.4858,-61.5122,115.5908,-633.9718,-83.9811
15.50,-0.1052,-0.3506,6.4837,-61.5192,115.7205,-635.2021,-83.9837
15.52,-0.1051,-0.3485,6.4816,-61.5262,115.8501,-636.4327,-83.9863
15.54,-0.1050,-0.3463,6.4795,-61.5331,115.9797,-637.6633,-83.9889
15.56,-0.1050,-0.3442,6.4774,-61.5400,116.1093,-638.8941,-83.9915
15.58,-0.1049,-0.3421,6.4753,-61.5468,116.2388,-640.1251,-83.9941
15.60,-0.1048,-0.3400,6.4732,-61.5536,116.3682,-641.3561,-83.9967
15.62,-0.1048,-0.3379,6.4711,-61.5604,116.4976,-642.5873,-83.9993
15.64,-0.1047,-0.3358,6.4690,-61.5671,116.6270,-643.8187,-84.0018
15.66,-0.1046,-0.3337,6.4669,-61.5738,116.7564,-645.0502,-84.0044
15.68,-0.1046,-0.3317,6.4648,-61.5804,116.8857,-646.2818,-84.0070
15.70,-0.1045,-0.3296,6.4627,-61.5870,117.0149,-647.5135,-84.0095
15.72,-0.1044,-0.3276,6.4606,-61.5936,117.1441,-648.7454,-84.0121
15.74,-0.1043,-0.3256,6.4585,-61.6001,117.2733,-649.9774,-84.0146
15.76,-0.1043,-0.3236,6.4564,-61.6066,117.4024,-651.2095,-84.0172
15.78,-0.1042,-0.3216,6.4544,-61.6130,117.5315,-652.4418,-84.0197
15.80,-0.1041,-0.3196,6.4523,-61.6194,117.6606,-653.6742,-84.0222
15.82,-0.1041,-0.3176,6.4502,-61.6257,117.7896,-654.9067,-84.0248
15.84,-0.1040,-0.3157,6.4481,-61.6320,117.9185,-656.1393,-84.0273
15.86,-0.1039,-0.3137,6.4460,-61.6383,118.0474,-657.3721,-84.0298
15.88,-0.1039,-0.3118,6.4440,-61.6446,118.1763,-658.6050,-84.0323
15.90,-0.1038,-0.3099,6.4419,-61.6508,118.3052,-659.8380,-84.0348
15.92,-0.1037,-0.3080,6.4398,-61.6569,118.4340,-661.0711,-84.0373
15.94,-0.1037,-0.3061,6.4377,-61.6630,118.5627,-662.3044,-84.0398
15.96,-0.1036,-0.3042,6.4357,-61.6691,118.6914,-663.5378,-84.0423
15.98,-0.1035,-0.3023,6.4336,-61.6752,118.8201,-664.7713,-84.0448
16.00,-0.1035,-0.3004,6.4315,-61.6812,118.9487,-666.0049,-84.0473
16.02,-0.1034,-0.2986,6.4294,-61.6871,119.0773,-667.2386,-84.0497
16.04,-0.1033,-0.2967,6.4274,-61.6931,119.2059,-668.4725,-84.0522
16.06,-0.1033,-0.2949,6.4253,-61.6990,119.3344,-669.7065,-84.0547
16.08,-0.1032,-0.2931,6.4233,-61.7048,119.4628,-670.9406,-84.0571
16.10,-0.1031,-0.2913,6.4212,-61.7107,119.5913,-672.1748,-84.0596
16.12,-0.1031,-0.2895,6.4191,-61.7165,119.7196,-673.4091,-84.0620
16.14,-0.1030,-0.2877,6.4171,-61.7222,119.8480,-674.6436,-84.0645
16.16,-0.1029,-0.2859,6.4150,-61.7279,119.9763,-675.8781,-84.0669
16.18,-0.1029,-0.2842,6.4130,-61.7336,120.1045,-677.1128,-84.0693
16.20,-0.1028,-0.2824,6.4109,-61.7393,120.2328,-678.3476,-84.0718
16.22,-0.1027,-0.2807,6.4088,-61.7449,120.3609,-679.5825,-84.0742
16.24,-0.1027,-0.2789,6.4068,-61.7504,120.4891,-680.8175,-84.0766
16.26,-0.1026,-0.2772,6.4047,-61.7560,120.6172,-682.0526,-84.0790
16.28,-0.1026,-0.2755,6.4027,-61.7615,120.7452,-683.2878,-84.0814
16.30,-0.1025,-0.2738,6.4006,-61.7670,120.8732,-684.5232,-84.0838
16.32,-0.1024,-0.2721,6.3986,-61.7724,121.0012,-685.7586,-84.0862
16.34,-0.1024,-0.2704,6.3965,-61.7778,121.1291,-686.9942,-84.0886
16.36,-0.1023,-0.2687,6.3945,-61.7832,121.2570,-688.2298,-84.0910
16.38,-0.1022,-0.2671,6.3924,-61.7885,121.3849,-689.4656,-84.0934
16.40,-0.1022,-0.2654,6.3904,-61.7939,121.5127,-690.7015,-84.0958
16.42,-0.1021,-0.2638,6.3884,-61.7991,121.6404,-691.9375,-84.0981
16.44,-0.1020,-0.2622,6.3863,-61.8044,121.7682,-693.1736,-84.1005
16.46,-0.1020,-0.2605,6.3843,-61.8096,121.8959,-694.4098,-84.1029
16.48,-0.1019,-0.2589,6.3822,-61.8148,122.0235,-695.6461,-84.1052
16.50,-0.1018,-0.2573,6.3802,-61.8199,122.1511,-696.8825,-84.1076
16.52,-0.1018,-0.2557,6.3782,-61.8250,122.2787,-698.1190,-84.1099
16.54,-0.1017,-0.2542,6.3761,-61.8301,122.4062,-699.3556,-84.1123
16.56,-0.1016,-0.2526,6.3741,-61.8352,122.5337,-700.5923,-84.1146
16.58,-0.1016,-0.2510,6.3721,-61.8402,122.6611,-701.8291,-84.1169
16.60,-0.1015,-0.2495,6.3700,-61.8452,122.7885,-703.0660,-84.1193
16.62,-0.1014,-0.2479,6.3680,-61.8501,122.9159,-704.3030,-84.1216
16.64,-0.1014,-0.2464,6.3660,-61.8551,123.0432,-705.5401,-84.1239
16.66,-0.1013,-0.2449,6.3640,-61.8600,123.1705,-706.7773,-84.1263
16.68,-0.1012,-0.2434,6.3619,-61.8648,123.2977,-708.0146,-84.1286
16.70,-0.1012,-0.2419,6.3599,-61.8697,123.4249,-709.2520,-84.1309
16.72,-0.1011,-0.2404,6.3579,-61.8745,123.5521,-710.4894,-84.1332
16.74,-0.1011,-0.2389,6.3559,-61.8792,123.6792,-711.7270,-84.1355
16.76,-0.1010,-0.2374,6.3538,-61.8840,123.8063,-712.9647,-84.1378
16.78,-0.1009,-0.2359,6.3518,-61.8887,123.9333,-714.2025,-84.1401
16.80,-0.1009,-0.2345,6.3498,-61.8934,124.0603,-715.4404,-84.1424
16.82,-0.1008,-0.2330,6.3478,-61.8981,124.1873,-716.6783,-84.1446
16.84,-0.1007,-0.2316,6.3458,-61.9027,124.3142,-717.9164,-84.1469
16.86,-0.1007,-0.2301,6.3438,-61.9073,124.4410,-719.1545,-84.1492
16.88,-0.1006,-0.2287,6.3418,-61.9119,124.5679,-720.3928,-84.1515
16.90,-0.1005,-0.2273,6.3397,-61.9164,124.6947,-721.6311,-84.1537
16.92,-0.1005,-0.2259,6.3377,-61.9209,124.8214,-722.8695,-84.1560
16.94,-0.1004,-0.2245,6.3357,-61.9254,124.9481,-724.1080,-84.1583
16.96,-0.1004,-0.2231,6.3337,-61.9299,125.0748,-725.3466,-84.1605
16.98,-0.1003,-0.2217,6.3317,-61.9343,125.2015,-726.5853,-84.1628
17.00,-0.1002,-0.2203,6.3297,-61.9387,125.3280,-727.8241,-84.1650
17.02,-0.1002,-0.2190,6.3277,-61.9431,125.4546,-729.0629,-84.1673
17.04,-0.1001,-0.2176,6.3257,-61.9475,125.5811,-730.3019,-84.1695
17.06,-0.1000,-0.2163,6.3237,-61.9518,125.7076,-731.5409,-84.1717
17.08,-0.1000,-0.2149,6.3217,-61.9561,125.8340,-732.7800,-84.1740
17.10,-0.0999,-0.2136,6.3197,-61.9604,125.9604,-734.0192,-84.1762
17.12,-0.0998,-0.2123,6.3177,-61.9646,126.0868,-735.2585,-84.1784
17.14,-0.0998,-0.2110,6.3157,-61.9688,126.2131,-736.4979,-84.1806
17.16,-0.0997,-0.2097,6.3137,-61.9730,126.3394,-737.7374,-84.1829
17.18,-0.0997,-0.2084,6.3117,-61.9772,126.4656,-738.9769,-84.1851
17.20,-0.0996,-0.2071,6.3097,-61.9813,126.5918,-740.2165,-84.1873
17.22,-0.0995,-0.2058,6.3077,-61.9854,126.7179,-741.4562,-84.1895
17.24,-0.0995,-0.2045,6.3058,-61.9895,126.8441,-742.6960,-84.1917
17.26,-0.0994,-0.2032,6.3038,-61.9936,126.9701,-743.9359,-84.1939
17.28,-0.0993,-0.2020,6.3018,-61.9976,127.0962,-745.1759,-84.1961
17.30,-0.0993,-0.2007,6.2998,-62.0016,127.2222,-746.4159,-84.1983
17.32,-0.0992,-0.1995,6.2978,-62.0056,127.3481,-747.6560,-84.2005
17.34,-0.0992,-0.1983,6.2958,-62.0096,127.4740,-748.8962,-84.2026
17.36,-0.0991,-0.1970,6.2938,-62.0135,127.5999,-750.1365,-84.2048
17.38,-0.0990,-0.1958,6.2919,-62.0175,127.7258,-751.3768,-84.2070
17.40,-0.0990,-0.1946,6.2899,-62.0214,127.8516,-752.6172,-84.2092
17.42,-0.0989,-0.1934,6.2879,-62.0252,127.9773,-753.8578,-84.2113
17.44,-0.0988,-0.1922,6.2859,-62.0291,128.1030,-755.0983,-84.2135
17.46,-0.0988,-0.1910,6.2840,-62.0329,128.2287,-756.3390,-84.2156
17.48,-0.0987,-0.1898,6.2820,-62.0367,128.3543,-757.5797,-84.2178
17.50,-0.0987,-0.1886,6.2800,-62.0405,128.4799,-758.8205,-84.2200
17.52,-0.0986,-0.1875,6.2780,-62.0442,128.6055,-760.0614,-84.2221
17.54,-0.0985,-0.1863,6.2761,-62.0479,128.7310,-761.3024,-84.2243
17.56,-0.0985,-0.1851,6.2741,-62.0516,128.8565,-762.5434,-84.2264
17.58,-0.0984,-0.1840,6.2721,-62.0553,128.9820,-763.7845,-84.2285
17.60,-0.0983,-0.1828,6.2702,-62.0590,129.1074,-765.0257,-84.2307
17.62,-0.0983,-0.1817,6.2682,-62.0626,129.2327,-766.2669,-84.2328
17.64,-0.0982,-0.1806,6.2662,-62.0662,129.3580,-767.5083,-84.2349
17.66,-0.0982,-0.1795,6.2643,-62.0698,129.4833,-768.7497,-84.2371
17.68,-0.0981,-0.1783,6.2623,-62.0734,129.6086,-769.9911,-84.2392
17.70,-0.0980,-0.1772,6.2603,-62.0769,129.7338,-771.2327,-84.2413
17.72,-0.0980,-0.1761,6.2584,-62.0804,129.8590,-772.4743,-84.2434
17.74,-0.0979,-0.1750,6.2564,-62.0839,129.9841,-773.7160,-84.2455
17.76,-0.0979,-0.1740,6.2545,-62.0874,130.1092,-774.9577,-84.2476
17.78,-0.0978,-0.1729,6.2525,-62.0909,130.2342,-776.1995,-84.2497
17.80,-0.0977,-0.1718,6.2506,-62.0943,130.3592,-777.4414,-84.2518
17.82,-0.0977,-0.1707,6.2486,-62.0977,130.4842,-778.6834,-84.2539
17.84,-0.0976,-0.1697,6.2467,-62.1011,130.6091,-779.9254,-84.2560
17.86,-0.0976,-0.1686,6.2447,-62.1045,130.7340,-781.1675,-84.2581
17.88,-0.0975,-0.1676,6.2428,-62.1078,130.8589,-782.4096,-84.2602
17.90,-0.0974,-0.1665,6.2408,-62.1112,130.9837,-783.6519,-84.2623
17.92,-0.0974,-0.1655,6.2389,-62.1145,131.1085,-784.8941,-84.2644
17.94,-0.0973,-0.1645,6.2369,-62.1178,131.2332,-786.1365,-84.2665
17.96,-0.0972,-0.1635,6.2350,-62.1210,131.3579,-787.3789,-84.2685
17.98,-0.0972,-0.1624,6.2330,-62.1243,131.4826,-788.6214,-84.2706
18.00,-0.0971,-0.1614,6.2311,-62.1275,131.6072,-789.8640,-84.2727
18.02,-0.0971,-0.1604,6.2291,-62.1307,131.7318,-791.1066,-84.2747
18.04,-0.0970,-0.1594,6.2272,-62.1339,131.8563,-792.3493,-84.2768
18.06,-0.0969,-0.1584,6.2253,-62.1371,131.9808,-793.5920,-84.2789
18.08,-0.0969,-0.1575,6.2233,-62.1402,132.1053,-794.8348,-84.2809
18.10,-0.0968,-0.1565,6.2214,-62.1434,132.2297,-796.0777,-84.2830
18.12,-0.0968,-0.1555,6.2194,-62.1465,132.3541,-797.3206,-84.2850
18.14,-0.0967,-0.1545,6.2175,-62.1496,132.4785,-798.5636,-84.2871
18.16,-0.0966,-0.1536,6.2156,-62.1526,132.6028,-799.8066,-84.2891
18.18,-0.0966,-0.1526,6.2136,-62.1557,132.7270,-801.0498,-84.2912
18.20,-0.0965,-0.1517,6.2117,-62.1587,132.8513,-802.2929,-84.2932
18.22,-0.0965,-0.1507,6.2098,-62.1617,132.9755,-803.5362,-84.2952
18.24,-0.0964,-0.1498,6.2079,-62.1647,133.0996,-804.7795,-84.2973
18.26,-0.0963,-0.1489,6.2059,-62.1677,133.2238,-806.0228,-84.2993
18.28,-0.0963,-0.1479,6.2040,-62.1707,133.3478,-807.2662,-84.3013
18.30,-0.0962,-0.1470,6.2021,-62.1736,133.4719,-808.5097,-84.3033
18.32,-0.0962,-0.1461,6.2002,-62.1765,133.5959,-809.7532,-84.3054
18.34,-0.0961,-0.1452,6.1982,-62.1794,133.7198,-810.9968,-84.3074
18.36,-0.0960,-0.1443,6.1963,-62.1823,133.8438,-812.2405,-84.3094
18.38,-0.0960,-0.1434,6.1944,-62.1852,133.9677,-813.4842,-84.3114
18.40,-0.0959,-0.1425,6.1925,-62.1880,134.0915,-814.7279,-84.3134
18.42,-0.0959,-0.1416,6.1906,-62.1909,134.2153,-815.9717,-84.3154
18.44,-0.0958,-0.1407,6.1886,-62.1937,134.3391,-817.2156,-84.3174
18.46,-0.0957,-0.1399,6.1867,-62.1965,134.4628,-818.4596,-84.3194
18.48,-0.0957,-0.1390,6.1848,-62.1993,134.5865,-819.7035,-84.3214
18.50,-0.0956,-0.1381,6.1829,-62.2020,134.7102,-820.9476,-84.3234
18.52,-0.0956,-0.1373,6.1810,-62.2048,134.8338,-822.1917,-84.3254
18.54,-0.0955,-0.1364,6.1791,-62.2075,134.9574,-823.4358,-84.3274
18.56,-0.0955,-0.1356,6.1772,-62.2102,135.0809,-824.6800,-84.3294
18.58,-0.0954,-0.1347,6.1753,-62.2129,135.2044,-825.9243,-84.3314
18.60,-0.0953,-0.1339,6.1734,-62.2156,135.3279,-827.1686,-84.3334
18.62,-0.0953,-0.1331,6.1715,-62.2182,135.4513,-828.4130,-84.3353
18.64,-0.0952,-0.1322,6.1695,-62.2209,135.5747,-829.6574,-84.3373
18.66,-0.0952,-0.1314,6.1676,-62.2235,135.6981,-830.9018,-84.3393
18.68,-0.0951,-0.1306,6.1657,-62.2261,135.8214,-832.1464,-84.3413
18.70,-0.0950,-0.1298,6.1638,-62.2287,135.9447,-833.3909,-84.3432
18.72,-0.0950,-0.1290,6.1619,-62.2313,136.0679,-834.6356,-84.3452
18.74,-0.0949,-0.1282,6.1600,-62.2339,136.1911,-835.8802,-84.3472
18.76,-0.0949,-0.1274,6.1581,-62.2364,136.3143,-837.1250,-84.3491
18.78,-0.0948,-0.1266,6.1563,-62.2389,136.4374,-838.3698,-84.3511
18.80,-0.0947,-0.1258,6.1544,-62.2415,136.5605,-839.6146,-84.3530
18.82,-0.0947,-0.1250,6.1525,-62.2440,136.6835,-840.8595,-84.3550
18.84,-0.0946,-0.1242,6.1506,-62.2464,136.8065,-842.1044,-84.3569
18.86,-0.0946,-0.1234,6.1487,-62.2489,136.9295,-843.3494,-84.3589
18.88,-0.0945,-0.1227,6.1468,-62.2514,137.0524,-844.5944,-84.3608
18.90,-0.0945,-0.1219,6.1449,-62.2538,137.1753,-845.8395,-84.3628
18.92,-0.0944,-0.1212,6.1430,-62.2562,137.2982,-847.0846,-84.3647
18.94,-0.0943,-0.1204,6.1411,-62.2586,137.4210,-848.3298,-84.3666
18.96,-0.0943,-0.1197,6.1392,-62.2610,137.5438,-849.5750,-84.3686
18.98,-0.0942,-0.1189,6.1374,-62.2634,137.6666,-850.8203,-84.3705
19.00,-0.0942,-0.1182,6.1355,-62.2658,137.7893,-852.0656,-84.3724
19.02,-0.0941,-0.1174,6.1336,-62.2681,137.9119,-853.3109,-84.3743
19.04,-0.0941,-0.1167,6.1317,-62.2705,138.0346,-854.5563,-84.3763
19.06,-0.0940,-0.1160,6.1298,-62.2728,138.1572,-855.8018,-84.3782
19.08,-0.0939,-0.1153,6.1279,-62.2751,138.2797,-857.0473,-84.3801
19.10,-0.0939,-0.1145,6.1261,-62.2774,138.4023,-858.2929,-84.3820
19.12,-0.0938,-0.1138,6.1242,-62.2796,138.5247,-859.5384,-84.3839
19.14,-0.0938,-0.1131,6.1223,-62.2819,138.6472,-860.7841,-84.3859
19.16,-0.0937,-0.1124,6.1204,-62.2842,138.7696,-862.0298,-84.3878
19.18,-0.0936,-0.1117,6.1186,-62.2864,138.8920,-863.2755,-84.3897
19.20,-0.0936,-0.1110,6.1167,-62.2886,139.0143,-864.5213,-84.3916
19.22,-0.0935,-0.1103,6.1148,-62.2908,139.1366,-865.7671,-84.3935
19.24,-0.0935,-0.1096,6.1130,-62.2930,139.2589,-867.0129,-84.3954
19.26,-0.0934,-0.1090,6.1111,-62.2952,139.3811,-868.2588,-84.3973
19.28,-0.0934,-0.1083,6.1092,-62.2974,139.5033,-869.5048,-84.3992
19.30,-0.0933,-0.1076,6.1074,-62.2995,139.6254,-870.7508,-84.4011
19.32,-0.0932,-0.1069,6.1055,-62.3016,139.7475,-871.9968,-84.4029
19.34,-0.0932,-0.1063,6.1036,-62.3038,139.8696,-873.2429,-84.4048
19.36,-0.0931,-0.1056,6.1018,-62.3059,139.9916,-874.4890,-84.4067
19.38,-0.0931,-0.1049,6.0999,-62.3080,140.1136,-875.7352,-84.4086
19.40,-0.0930,-0.1043,6.0980,-62.3101,140.2356,-876.9814,-84.4105
19.42,-0.0930,-0.1036,6.0962,-62.3121,140.3575,-878.2276,-84.4124
19.44,-0.0929,-0.1030,6.0943,-62.3142,140.4794,-879.4739,-84.4142
19.46,-0.0929,-0.1024,6.0925,-62.3162,140.6012,-880.7202,-84.4161
19.48,-0.0928,-0.1017,6.0906,-62.3183,140.7231,-881.9666,-84.4180
19.50,-0.0927,-0.1011,6.0888,-62.3203,140.8448,-883.2130,-84.4199
19.52,-0.0927,-0.1004,6.0869,-62.3223,140.9666,-884.4594,-84.4217
19.54,-0.0926,-0.0998,6.0851,-62.3243,141.0883,-885.7059,-84.4236
19.56,-0.0926,-0.0992,6.0832,-62.3263,141.2099,-886.9525,-84.4254
19.58,-0.0925,-0.0986,6.0814,-62.3283,141.3316,-888.1990,-84.4273
19.60,-0.0925,-0.0980,6.0795,-62.3302,141.4531,-889.4456,-84.4292
19.62,-0.0924,-0.0974,6.0777,-62.3322,141.5747,-890.6923,-84.4310
19.64,-0.0923,-0.0968,6.0758,-62.3341,141.6962,-891.9389,-84.4329
19.66,-0.0923,-0.0961,6.0740,-62.3360,141.8177,-893.1857,-84.4347
19.68,-0.0922,-0.0955,6.0721,-62.3379,141.9391,-894.4324,-84.4366
19.70,-0.0922,-0.0950,6.0703,-62.3398,142.0605,-895.6792,-84.4384
19.72,-0.0921,-0.0944,6.0684,-62.3417,142.1819,-896.9261,-84.4403
19.74,-0.0921,-0.0938,6.0666,-62.3436,142.3032,-898.1729,-84.4421
19.76,-0.0920,-0.0932,6.0648,-62.3455,142.4245,-899.4198,-84.4439
19.78,-0.0920,-0.0926,6.0629,-62.3473,142.5458,-900.6668,-84.4458
19.80,-0.0919,-0.0920,6.0611,-62.3492,142.6670,-901.9138,-84.4476
19.82,-0.0918,-0.0915,6.0592,-62.3510,142.7882,-903.1608,-84.4495
19.84,-0.0918,-0.0909,6.0574,-62.3528,142.9094,-904.4078,-84.4513
19.86,-0.0917,-0.0903,6.0556,-62.3546,143.0305,-905.6549,-84.4531
19.88,-0.0917,-0.0898,6.0537,-62.3564,143.1515,-906.9021,-84.4549
19.90,-0.0916,-0.0892,6.0519,-62.3582,143.2726,-908.1492,-84.4568
19.92,-0.0916,-0.0886,6.0501,-62.3600,143.3936,-909.3964,-84.4586
19.94,-0.0915,-0.0881,6.0482,-62.3617,143.5145,-910.6437,-84.4604
19.96,-0.0915,-0.0875,6.0464,-62.3635,143.6355,-911.8909,-84.4622
19.98,-0.0914,-0.0870,6.0446,-62.3652,143.7564,-913.1382,-84.4641
20.00,-0.0913,-0.0864,6.0428,-62.3669,143.8772,-914.3856,-84.4659
20.02,-0.0913,-0.0859,6.0409,-62.3687,143.9980,-915.6330,-84.4677
20.04,-0.0912,-0.0854,6.0391,-62.3704,144.1188,-916.8804,-84.4695
20.06,-0.0912,-0.0848,6.0373,-62.3721,144.2396,-918.1278,-84.4713
20.08,-0.0911,-0.0843,6.0355,-62.3738,144.3603,-919.3753,-84.4731
20.10,-0.0911,-0.0838,6.0336,-62.3754,144.4809,-920.6228,-84.4749
20.12,-0.0910,-0.0833,6.0318,-62.3771,144.6016,-921.8703,-84.4767
20.14,-0.0910,-0.0827,6.0300,-62.3787,144.7222,-923.1179,-84.4785
20.16,-0.0909,-0.0822,6.0282,-62.3804,144.8427,-924.3655,-84.4803
20.18,-0.0908,-0.0817,6.0264,-62.3820,144.9633,-925.6131,-84.4821
20.20,-0.0908,-0.0812,6.0245,-62.3837,145.0838,-926.8608,-84.4839
20.22,-0.0907,-0.0807,6.0227,-62.3853,145.2042,-928.1085,-84.4857
20.24,-0.0907,-0.0802,6.0209,-62.3869,145.3246,-929.3563,-84.4875
20.26,-0.0906,-0.0797,6.0191,-62.3885,145.4450,-930.6040,-84.4893
20.28,-0.0906,-0.0792,6.0173,-62.3900,145.5654,-931.8518,-84.4911
20.30,-0.0905,-0.0787,6.0155,-62.3916,145.6857,-933.0997,-84.4929
20.32,-0.0905,-0.0782,6.0137,-62.3932,145.8059,-934.3475,-84.4946
20.34,-0.0904,-0.0777,6.0119,-62.3947,145.9262,-935.5954,-84.4964
20.36,-0.0904,-0.0772,6.0101,-62.3963,146.0464,-936.8434,-84.4982
20.38,-0.0903,-0.0768,6.0083,-62.3978,146.1666,-938.0913,-84.5000
20.40,-0.0902,-0.0763,6.0064,-62.3993,146.2867,-939.3393,-84.5018
20.42,-0.0902,-0.0758,6.0046,-62.4009,146.4068,-940.5873,-84.5035
20.44,-0.0901,-0.0753,6.0028,-62.4024,146.5268,-941.8354,-84.5053
20.46,-0.0901,-0.0749,6.0010,-62.4039,146.6469,-943.0834,-84.5071
20.48,-0.0900,-0.0744,5.9992,-62.4054,146.7668,-944.3315,-84.5088
20.50,-0.0900,-0.0739,5.9974,-62.4068,146.8868,-945.5797,-84.5106
20.52,-0.0899,-0.0735,5.9956,-62.4083,147.0067,-946.8278,-84.5124
20.54,-0.0899,-0.0730,5.9938,-62.4098,147.1266,-948.0760,-84.5141
20.56,-0.0898,-0.0726,5.9920,-62.4112,147.2464,-949.3243,-84.5159
20.58,-0.0898,-0.0721,5.9903,-62.4127,147.3662,-950.5725,-84.5176
20.60,-0.0897,-0.0717,5.9885,-62.4141,147.4860,-951.8208,-84.5194
20.62,-0.0897,-0.0712,5.9867,-62.4155,147.6057,-953.0691,-84.5212
20.64,-0.0896,-0.0708,5.9849,-62.4169,147.7254,-954.3175,-84.5229
20.66,-0.0895,-0.0703,5.9831,-62.4183,147.8451,-955.5658,-84.5247
20.68,-0.0895,-0.0699,5.9813,-62.4197,147.9647,-956.8142,-84.5264
20.70,-0.0894,-0.0694,5.9795,-62.4211,148.0843,-958.0626,-84.5282
20.72,-0.0894,-0.0690,5.9777,-62.4225,148.2039,-959.3111,-84.5299
20.74,-0.0893,-0.0686,5.9759,-62.4239,148.3234,-960.5596,-84.5317
20.76,-0.0893,-0.0682,5.9741,-62.4252,148.4429,-961.8081,-84.5334
20.78,-0.0892,-0.0677,5.9724,-62.4266,148.5623,-963.0566,-84.5351
20.80,-0.0892,-0.0673,5.9706,-62.4279,148.6817,-964.3052,-84.5369
20.82,-0.0891,-0.0669,5.9688,-62.4293,148.8011,-965.5537,-84.5386
20.84,-0.0891,-0.0665,5.9670,-62.4306,148.9204,-966.8024,-84.5404
20.86,-0.0890,-0.0660,5.9652,-62.4319,149.0397,-968.0510,-84.5421
20.88,-0.0890,-0.0656,5.9635,-62.4332,149.1590,-969.2997,-84.5438
20.90,-0.0889,-0.0652,5.9617,-62.4345,149.2782,-970.5483,-84.5455
20.92,-0.0889,-0.0648,5.9599,-62.4358,149.3974,-971.7971,-84.5473
20.94,-0.0888,-0.0644,5.9581,-62.4371,149.5166,-973.0458,-84.5490
20.96,-0.0887,-0.0640,5.9563,-62.4384,149.6357,-974.2946,-84.5507
20.98,-0.0887,-0.0636,5.9546,-62.4397,149.7548,-975.5434,-84.5525
21.00,-0.0886,-0.0632,5.9528,-62.4409,149.8739,-976.7922,-84.5542
21.02,-0.0886,-0.0628,5.9510,-62.4422,149.9929,-978.0410,-84.5559
21.04,-0.0885,-0.0624,5.9493,-62.4434,150.1119,-979.2899,-84.5576
21.06,-0.0885,-0.0620,5.9475,-62.4447,150.2308,-980.5388,-84.5593
21.08,-0.0884,-0.0617,5.9457,-62.4459,150.3497,-981.7877,-84.5610
21.10,-0.0884,-0.0613,5.9440,-62.4471,150.4686,-983.0367,-84.5628
21.12,-0.0883,-0.0609,5.9422,-62.4484,150.5875,-984.2856,-84.5645
21.14,-0.0883,-0.0605,5.9404,-62.4496,150.7063,-985.5346,-84.5662
21.16,-0.0882,-0.0601,5.9387,-62.4508,150.8250,-986.7836,-84.5679
21.18,-0.0882,-0.0598,5.9369,-62.4520,150.9438,-988.0327,-84.5696
21.20,-0.0881,-0.0594,5.9351,-62.4532,151.0625,-989.2817,-84.5713
21.22,-0.0881,-0.0590,5.9334,-62.4543,151.1812,-990.5308,-84.5730
21.24,-0.0880,-0.0586,5.9316,-62.4555,151.2998,-991.7799,-84.5747
21.26,-0.0880,-0.0583,5.9298,-62.4567,151.4184,-993.0291,-84.5764
21.28,-0.0879,-0.0579,5.9281,-62.4578,151.5369,-994.2782,-84.5781
21.30,-0.0879,-0.0575,5.9263,-62.4590,151.6555,-995.5274,-84.5798
21.32,-0.0878,-0.0572,5.9246,-62.4601,151.7740,-996.7766,-84.5815
21.34,-0.0878,-0.0568,5.9228,-62.4613,151.8924,-998.0258,-84.5832
21.36,-0.0877,-0.0565,5.9211,-62.4624,152.0108,-999.2751,-84.5849
21.38,-0.0876,-0.0561,5.9193,-62.4635,152.1292,-1000.5243,-84.5866
21.40,-0.0876,-0.0558,5.9176,-62.4646,152.2476,-1001.7736,-84.5883
21.42,-0.0875,-0.0554,5.9158,-62.4657,152.3659,-1003.0230,-84.5899
21.44,-0.0875,-0.0551,5.9141,-62.4668,152.4842,-1004.2723,-84.5916
21.46,-0.0874,-0.0547,5.9123,-62.4679,152.6024,-1005.5216,-84.5933
21.48,-0.0874,-0.0544,5.9106,-62.4690,152.7206,-1006.7710,-84.5950
21.50,-0.0873,-0.0541,5.9088,-62.4701,152.8388,-1008.0204,-84.5967
21.52,-0.0873,-0.0537,5.9071,-62.4712,152.9570,-1009.2699,-84.5984
21.54,-0.0872,-0.0534,5.9053,-62.4723,153.0751,-1010.5193,-84.6000
21.56,-0.0872,-0.0530,5.9036,-62.4733,153.1931,-1011.7688,-84.6017
21.58,-0.0871,-0.0527,5.9018,-62.4744,153.3112,-1013.0183,-84.6034
21.60,-0.0871,-0.0524,5.9001,-62.4754,153.4292,-1014.2678,-84.6051
21.62,-0.0870,-0.0521,5.8984,-62.4765,153.5471,-1015.5173,-84.6067
21.64,-0.0870,-0.0517,5.8966,-62.4775,153.6651,-1016.7668,-84.6084
21.66,-0.0869,-0.0514,5.8949,-62.4785,153.7830,-1018.0164,-84.6101
21.68,-0.0869,-0.0511,5.8931,-62.4795,153.9008,-1019.2660,-84.6117
21.70,-0.0868,-0.0508,5.8914,-62.4806,154.0187,-1020.5156,-84.6134
21.72,-0.0868,-0.0505,5.8897,-62.4816,154.1364,-1021.7652,-84.6151
21.74,-0.0867,-0.0501,5.8879,-62.4826,154.2542,-1023.0149,-84.6167
21.76,-0.0867,-0.0498,5.8862,-62.4836,154.3719,-1024.2646,-84.6184
21.78,-0.0866,-0.0495,5.8845,-62.4846,154.4896,-1025.5143,-84.6200
21.80,-0.0866,-0.0492,5.8827,-62.4855,154.6073,-1026.7640,-84.6217
21.82,-0.0865,-0.0489,5.8810,-62.4865,154.7249,-1028.0137,-84.6234
21.84,-0.0865,-0.0486,5.8793,-62.4875,154.8425,-1029.2635,-84.6250
21.86,-0.0864,-0.0483,5.8776,-62.4885,154.9600,-1030.5132,-84.6267
21.88,-0.0864,-0.0480,5.8758,-62.4894,155.0775,-1031.7630,-84.6283
21.90,-0.0863,-0.0477,5.8741,-62.4904,155.1950,-1033.0128,-84.6300
21.92,-0.0863,-0.0474,5.8724,-62.4913,155.3125,-1034.2626,-84.6316
21.94,-0.0862,-0.0471,5.8707,-62.4923,155.4299,-1035.5125,-84.6333
21.96,-0.0862,-0.0468,5.8689,-62.4932,155.5473,-1036.7623,-84.6349
21.98,-0.0861,-0.0465,5.8672,-62.4941,155.6646,-1038.0122,-84.6366
22.00,-0.0861,-0.0462,5.8655,-62.4950,155.7819,-1039.2621,-84.6382
22.02,-0.0860,-0.0459,5.8638,-62.4960,155.8992,-1040.5121,-84.6398
22.04,-0.0860,-0.0456,5.8620,-62.4969,156.0164,-1041.7620,-84.6415
22.06,-0.0859,-0.0454,5.8603,-62.4978,156.1336,-1043.0119,-84.6431
22.08,-0.0859,-0.0451,5.8586,-62.4987,156.2508,-1044.2619,-84.6448
22.10,-0.0858,-0.0448,5.8569,-62.4996,156.3680,-1045.5119,-84.6464
22.12,-0.0858,-0.0445,5.8552,-62.5005,156.4851,-1046.7619,-84.6480
22.14,-0.0857,-0.0442,5.8535,-62.5014,156.6021,-1048.0119,-84.6497
22.16,-0.0857,-0.0440,5.8518,-62.5022,156.7192,-1049.2620,-84.6513
22.18,-0.0856,-0.0437,5.8500,-62.5031,156.8362,-1050.5121,-84.6529
22.20,-0.0856,-0.0434,5.8483,-62.5040,156.9531,-1051.7621,-84.6546
22.22,-0.0855,-0.0431,5.8466,-62.5048,157.0701,-1053.0122,-84.6562
22.24,-0.0855,-0.0429,5.8449,-62.5057,157.1870,-1054.2623,-84.6578
22.26,-0.0854,-0.0426,5.8432,-62.5065,157.3038,-1055.5125,-84.6594
22.28,-0.0854,-0.0423,5.8415,-62.5074,157.4207,-1056.7626,-84.6611
22.30,-0.0853,-0.0421,5.8398,-62.5082,157.5375,-1058.0128,-84.6627
22.32,-0.0853,-0.0418,5.8381,-62.5091,157.6542,-1059.2630,-84.6643
22.34,-0.0852,-0.0415,5.8364,-62.5099,157.7709,-1060.5132,-84.6659
22.36,-0.0852,-0.0413,5.8347,-62.5107,157.8876,-1061.7634,-84.6675
22.38,-0.0851,-0.0410,5.8330,-62.5115,158.0043,-1063.0136,-84.6691
22.40,-0.0851,-0.0408,5.8313,-62.5124,158.1209,-1064.2639,-84.6708
22.42,-0.0850,-0.0405,5.8296,-62.5132,158.2375,-1065.5141,-84.6724
22.44,-0.0850,-0.0403,5.8279,-62.5140,158.3541,-1066.7644,-84.6740
22.46,-0.0849,-0.0400,5.8262,-62.5148,158.4706,-1068.0147,-84.6756
22.48,-0.0849,-0.0398,5.8245,-62.5156,158.5871,-1069.2650,-84.6772
22.50,-0.0848,-0.0395,5.8228,-62.5164,158.7035,-1070.5153,-84.6788
22.52,-0.0848,-0.0393,5.8211,-62.5171,158.8200,-1071.7657,-84.6804
22.54,-0.0847,-0.0390,5.8194,-62.5179,158.9363,-1073.0160,-84.6820
22.56,-0.0847,-0.0388,5.8177,-62.5187,159.0527,-1074.2664,-84.6836
22.58,-0.0846,-0.0385,5.8160,-62.5195,159.1690,-1075.5168,-84.6852
22.60,-0.0846,-0.0383,5.8143,-62.5202,159.2853,-1076.7672,-84.6868
22.62,-0.0845,-0.0380,5.8126,-62.5210,159.4016,-1078.0176,-84.6884
22.64,-0.0845,-0.0378,5.8109,-62.5218,159.5178,-1079.2681,-84.6900
22.66,-0.0844,-0.0376,5.8092,-62.5225,159.6340,-1080.5185,-84.6916
22.68,-0.0844,-0.0373,5.8076,-62.5233,159.7501,-1081.7690,-84.6932
22.70,-0.0843,-0.0371,5.8059,-62.5240,159.8662,-1083.0195,-84.6948
22.72,-0.0843,-0.0369,5.8042,-62.5247,159.9823,-1084.2700,-84.6964
22.74,-0.0842,-0.0366,5.8025,-62.5255,160.0984,-1085.5205,-84.6980
22.76,-0.0842,-0.0364,5.8008,-62.5262,160.2144,-1086.7710,-84.6996
22.78,-0.0841,-0.0362,5.7991,-62.5269,160.3304,-1088.0215,-84.7012
22.80,-0.0841,-0.0360,5.7975,-62.5276,160.4463,-1089.2721,-84.7028
22.82,-0.0840,-0.0357,5.7958,-62.5284,160.5622,-1090.5226,-84.7044
22.84,-0.0840,-0.0355,5.7941,-62.5291,160.6781,-1091.7732,-84.7060
22.86,-0.0839,-0.0353,5.7924,-62.5298,160.7940,-1093.0238,-84.7075
22.88,-0.0839,-0.0351,5.7907,-62.5305,160.9098,-1094.2744,-84.7091
22.90,-0.0838,-0.0348,5.7891,-62.5312,161.0256,-1095.5251,-84.7107
22.92,-0.0838,-0.0346,5.7874,-62.5319,161.1413,-1096.7757,-84.7123
22.94,-0.0837,-0.0344,5.7857,-62.5326,161.2570,-1098.0263,-84.7139
22.96,-0.0837,-0.0342,5.7840,-62.5332,161.3727,-1099.2770,-84.7154
22.98,-0.0836,-0.0340,5.7824,-62.5339,161.4883,-1100.5277,-84.7170
23.00,-0.0836,-0.0338,5.7807,-62.5346,161.6040,-1101.7784,-84.7186
23.02,-0.0835,-0.0336,5.7790,-62.5353,161.7195,-1103.0291,-84.7202
23.04,-0.0835,-0.0334,5.7774,-62.5359,161.8351,-1104.2798,-84.7217
23.06,-0.0834,-0.0331,5.7757,-62.5366,161.9506,-1105.5305,-84.7233
23.08,-0.0834,-0.0329,5.7740,-62.5373,162.0661,-1106.7813,-84.7249
23.10,-0.0833,-0.0327,5.7723,-62.5379,162.1815,-1108.0320,-84.7265
23.12,-0.0833,-0.0325,5.7707,-62.5386,162.2969,-1109.2828,-84.7280
23.14,-0.0833,-0.0323,5.7690,-62.5392,162.4123,-1110.5336,-84.7296
23.16,-0.0832,-0.0321,5.7674,-62.5398,162.5277,-1111.7844,-84.7312
23.18,-0.0832,-0.0319,5.7657,-62.5405,162.6430,-1113.0352,-84.7327
23.20,-0.0831,-0.0317,5.7640,-62.5411,162.7583,-1114.2860,-84.7343
23.22,-0.0831,-0.0315,5.7624,-62.5417,162.8735,-1115.5369,-84.7358
23.24,-0.0830,-0.0313,5.7607,-62.5424,162.9887,-1116.7877,-84.7374
23.26,-0.0830,-0.0311,5.7590,-62.5430,163.1039,-1118.0386,-84.7390
23.28,-0.0829,-0.0309,5.7574,-62.5436,163.2191,-1119.2894,-84.7405
23.30,-0.0829,-0.0307,5.7557,-62.5442,163.3342,-1120.5403,-84.7421
23.32,-0.0828,-0.0305,5.7541,-62.5448,163.4492,-1121.7912,-84.7436
23.34,-0.0828,-0.0304,5.7524,-62.5454,163.5643,-1123.0421,-84.7452
23.36,-0.0827,-0.0302,5.7508,-62.5461,163.6793,-1124.2930,-84.7467
23.38,-0.0827,-0.0300,5.7491,-62.5467,163.7943,-1125.5440,-84.7483
23.40,-0.0826,-0.0298,5.7475,-62.5472,163.9092,-1126.7949,-84.7498
23.42,-0.0826,-0.0296,5.7458,-62.5478,164.0242,-1128.0459,-84.7514
23.44,-0.0825,-0.0294,5.7442,-62.5484,164.1390,-1129.2968,-84.7529
23.46,-0.0825,-0.0292,5.7425,-62.5490,164.2539,-1130.5478,-84.7545
23.48,-0.0824,-0.0291,5.7409,-62.5496,164.3687,-1131.7988,-84.7560
23.50,-0.0824,-0.0289,5.7392,-62.5502,164.4835,-1133.0498,-84.7576
23.52,-0.0823,-0.0287,5.7376,-62.5507,164.5982,-1134.3008,-84.7591
23.54,-0.0823,-0.0285,5.7359,-62.5513,164.7130,-1135.5519,-84.7607
23.56,-0.0823,-0.0283,5.7343,-62.5519,164.8276,-1136.8029,-84.7622
23.58,-0.0822,-0.0282,5.7326,-62.5524,164.9423,-1138.0540,-84.7637
23.60,-0.0822,-0.0280,5.7310,-62.5530,165.0569,-1139.3050,-84.7653
23.62,-0.0821,-0.0278,5.7293,-62.5536,165.1715,-1140.5561,-84.7668
23.64,-0.0821,-0.0276,5.7277,-62.5541,165.2861,-1141.8072,-84.7684
23.66,-0.0820,-0.0275,5.7261,-62.5547,165.4006,-1143.0583,-84.7699
23.68,-0.0820,-0.0273,5.7244,-62.5552,165.5151,-1144.3094,-84.7714
23.70,-0.0819,-0.0271,5.7228,-62.5557,165.6295,-1145.5605,-84.7730
23.72,-0.0819,-0.0269,5.7211,-62.5563,165.7440,-1146.8116,-84.7745
23.74,-0.0818,-0.0268,5.7195,-62.5568,165.8583,-1148.0627,-84.7760
23.76,-0.0818,-0.0266,5.7179,-62.5574,165.9727,-1149.3139,-84.7776
23.78,-0.0817,-0.0264,5.7162,-62.5579,166.0870,-1150.5650,-84.7791
23.80,-0.0817,-0.0263,5.7146,-62.5584,166.2013,-1151.8162,-84.7806
23.82,-0.0816,-0.0261,5.7130,-62.5589,166.3156,-1153.0674,-84.7821
23.84,-0.0816,-0.0259,5.7113,-62.5595,166.4298,-1154.3186,-84.7837
23.86,-0.0815,-0.0258,5.7097,-62.5600,166.5440,-1155.5698,-84.7852
23.88,-0.0815,-0.0256,5.7081,-62.5605,166.6582,-1156.8210,-84.7867
23.90,-0.0815,-0.0255,5.7064,-62.5610,166.7723,-1158.0722,-84.7882
23.92,-0.0814,-0.0253,5.7048,-62.5615,166.8864,-1159.3234,-84.7898
23.94,-0.0814,-0.0251,5.7032,-62.5620,167.0004,-1160.5747,-84.7913
23.96,-0.0813,-0.0250,5.7016,-62.5625,167.1145,-1161.8259,-84.7928
23.98,-0.0813,-0.0248,5.6999,-62.5630,167.2285,-1163.0772,-84.7943
24.00,-0.0812,-0.0247,5.6983,-62.5635,167.3424,-1164.3285,-84.7958
24.02,-0.0812,-0.0245,5.6967,-62.5640,167.4564,-1165.5797,-84.7973
24.04,-0.0811,-0.0244,5.6951,-62.5645,167.5703,-1166.8310,-84.7989
24.06,-0.0811,-0.0242,5.6935,-62.5650,167.6841,-1168.0823,-84.8004
24.08,-0.0810,-0.0241,5.6918,-62.5654,167.7980,-1169.3336,-84.8019
24.10,-0.0810,-0.0239,5.6902,-62.5659,167.9118,-1170.5850,-84.8034
24.12,-0.0809,-0.0238,5.6886,-62.5664,168.0256,-1171.8363,-84.8049
24.14,-0.0809,-0.0236,5.6870,-62.5669,168.1393,-1173.0876,-84.8064
24.16,-0.0809,-0.0235,5.6854,-62.5673,168.2530,-1174.3390,-84.8079
24.18,-0.0808,-0.0233,5.6837,-62.5678,168.3667,-1175.5903,-84.8094
24.20,-0.0808,-0.0232,5.6821,-62.5683,168.4803,-1176.8417,-84.8109
24.22,-0.0807,-0.0230,5.6805,-62.5687,168.5939,-1178.0931,-84.8124
24.24,-0.0807,-0.0229,5.6789,-62.5692,168.7075,-1179.3444,-84.8139
24.26,-0.0806,-0.0227,5.6773,-62.5696,168.8211,-1180.5958,-84.8154
24.28,-0.0806,-0.0226,5.6757,-62.5701,168.9346,-1181.8472,-84.8169
24.30,-0.0805,-0.0225,5.6741,-62.5705,169.0481,-1183.0987,-84.8184
24.32,-0.0805,-0.0223,5.6725,-62.5710,169.1615,-1184.3501,-84.8199
24.34,-0.0804,-0.0222,5.6708,-62.5714,169.2749,-1185.6015,-84.8214
24.36,-0.0804,-0.0220,5.6692,-62.5719,169.3883,-1186.8529,-84.8229
24.38,-0.0804,-0.0219,5.6676,-62.5723,169.5017,-1188.1044,-84.8244
24.40,-0.0803,-0.0218,5.6660,-62.5727,169.6150,-1189.3558,-84.8259
24.42,-0.0803,-0.0216,5.6644,-62.5732,169.7283,-1190.6073,-84.8274
24.44,-0.0802,-0.0215,5.6628,-62.5736,169.8415,-1191.8588,-84.8289
24.46,-0.0802,-0.0214,5.6612,-62.5740,169.9547,-1193.1103,-84.8304
24.48,-0.0801,-0.0212,5.6596,-62.5745,170.0679,-1194.3617,-84.8319
24.50,-0.0801,-0.0211,5.6580,-62.5749,170.1811,-1195.6132,-84.8334
24.52,-0.0800,-0.0210,5.6564,-62.5753,170.2942,-1196.8647,-84.8349
24.54,-0.0800,-0.0208,5.6548,-62.5757,170.4073,-1198.1163,-84.8364
24.56,-0.0799,-0.0207,5.6532,-62.5761,170.5204,-1199.3678,-84.8378
24.58,-0.0799,-0.0206,5.6516,-62.5765,170.6334,-1200.6193,-84.8393
24.60,-0.0799,-0.0204,5.6500,-62.5769,170.7464,-1201.8709,-84.8408
24.62,-0.0798,-0.0203,5.6484,-62.5773,170.8594,-1203.1224,-84.8423
24.64,-0.0798,-0.0202,5.6468,-62.5778,170.9723,-1204.3740,-84.8438
24.66,-0.0797,-0.0201,5.6452,-62.5782,171.0852,-1205.6255,-84.8453
24.68,-0.0797,-0.0199,5.6436,-62.5786,171.1981,-1206.8771,-84.8467
24.70,-0.0796,-0.0198,5.6420,-62.5789,171.3109,-1208.1287,-84.8482
24.72,-0.0796,-0.0197,5.6404,-62.5793,171.4237,-1209.3803,-84.8497
24.74,-0.0795,-0.0196,5.6389,-62.5797,171.5365,-1210.6318,-84.8512
24.76,-0.0795,-0.0194,5.6373,-62.5801,171.6493,-1211.8835,-84.8526
24.78,-0.0794,-0.0193,5.6357,-62.5805,171.7620,-1213.1351,-84.8541
24.80,-0.0794,-0.0192,5.6341,-62.5809,171.8747,-1214.3867,-84.8556
24.82,-0.0794,-0.0191,5.6325,-62.5813,171.9873,-1215.6383,-84.8571
24.84,-0.0793,-0.0190,5.6309,-62.5817,172.0999,-1216.8899,-84.8585
24.86,-0.0793,-0.0188,5.6293,-62.5820,172.2125,-1218.1416,-84.8600
24.88,-0.0792,-0.0187,5.6277,-62.5824,172.3251,-1219.3932,-84.8615
24.90,-0.0792,-0.0186,5.6262,-62.5828,172.4376,-1220.6449,-84.8629
24.92,-0.0791,-0.0185,5.6246,-62.5831,172.5501,-1221.8965,-84.8644
24.94,-0.0791,-0.0184,5.6230,-62.5835,172.6626,-1223.1482,-84.8659
24.96,-0.0790,-0.0183,5.6214,-62.5839,172.7750,-1224.3999,-84.8673
24.98,-0.0790,-0.0181,5.6198,-62.5842,172.8874,-1225.6516,-84.8688
25.00,-0.0790,-0.0180,5.6183,-62.5846,172.9997,-1226.9033,-84.8703
25.02,-0.0789,-0.0179,5.6167,-62.5850,173.1121,-1228.1550,-84.8717
25.04,-0.0789,-0.0178,5.6151,-62.5853,173.2244,-1229.4067,-84.8732
25.06,-0.0788,-0.0177,5.6135,-62.5857,173.3366,-1230.6584,-84.8747
25.08,-0.0788,-0.0176,5.6120,-62.5860,173.4489,-1231.9101,-84.8761
25.10,-0.0787,-0.0175,5.6104,-62.5864,173.5611,-1233.1618,-84.8776
25.12,-0.0787,-0.0174,5.6088,-62.5867,173.6733,-1234.4136,-84.8790
25.14,-0.0786,-0.0173,5.6072,-62.5871,173.7854,-1235.6653,-84.8805
25.16,-0.0786,-0.0171,5.6057,-62.5874,173.8975,-1236.9171,-84.8819
25.18,-0.0786,-0.0170,5.6041,-62.5877,174.0096,-1238.1688,-84.8834
25.20,-0.0785,-0.0169,5.6025,-62.5881,174.1217,-1239.4206,-84.8849
25.22,-0.0785,-0.0168,5.6009,-62.5884,174.2337,-1240.6723,-84.8863
25.24,-0.0784,-0.0167,5.5994,-62.5888,174.3457,-1241.9241,-84.8878
25.26,-0.0784,-0.0166,5.5978,-62.5891,174.4576,-1243.1759,-84.8892
25.28,-0.0783,-0.0165,5.5962,-62.5894,174.5695,-1244.4277,-84.8907
25.30,-0.0783,-0.0164,5.5947,-62.5898,174.6814,-1245.6795,-84.8921
25.32,-0.0783,-0.0163,5.5931,-62.5901,174.7933,-1246.9313,-84.8936
25.34,-0.0782,-0.0162,5.5915,-62.5904,174.9051,-1248.1831,-84.8950
25.36,-0.0782,-0.0161,5.5900,-62.5907,175.0169,-1249.4349,-84.8964
25.38,-0.0781,-0.0160,5.5884,-62.5910,175.1287,-1250.6867,-84.8979
25.40,-0.0781,-0.0159,5.5869,-62.5914,175.2404,-1251.9386,-84.8993
25.42,-0.0780,-0.0158,5.5853,-62.5917,175.3521,-1253.1904,-84.9008
25.44,-0.0780,-0.0157,5.5837,-62.5920,175.4638,-1254.4422,-84.9022
25.46,-0.0779,-0.0156,5.5822,-62.5923,175.5755,-1255.6941,-84.9037
25.48,-0.0779,-0.0155,5.5806,-62.5926,175.6871,-1256.9459,-84.9051
25.50,-0.0779,-0.0154,5.5791,-62.5929,175.7987,-1258.1978,-84.9065
25.52,-0.0778,-0.0153,5.5775,-62.5932,175.9102,-1259.4497,-84.9080
25.54,-0.0778,-0.0152,5.5760,-62.5935,176.0217,-1260.7015,-84.9094
25.56,-0.0777,-0.0151,5.5744,-62.5938,176.1332,-1261.9534,-84.9109
25.58,-0.0777,-0.0150,5.5728,-62.5941,176.2447,-1263.2053,-84.9123
25.60,-0.0776,-0.0149,5.5713,-62.5944,176.3561,-1264.4572,-84.9137
25.62,-0.0776,-0.0148,5.5697,-62.5947,176.4675,-1265.7091,-84.9152
25.64,-0.0776,-0.0147,5.5682,-62.5950,176.5789,-1266.9610,-84.9166
25.66,-0.0775,-0.0147,5.5666,-62.5953,176.6902,-1268.2129,-84.9180
25.68,-0.0775,-0.0146,5.5651,-62.5956,176.8015,-1269.4648,-84.9194
25.70,-0.0774,-0.0145,5.5635,-62.5959,176.9128,-1270.7167,-84.9209
25.72,-0.0774,-0.0144,5.5620,-62.5962,177.0240,-1271.9686,-84.9223
25.74,-0.0773,-0.0143,5.5604,-62.5965,177.1352,-1273.2206,-84.9237
25.76,-0.0773,-0.0142,5.5589,-62.5968,177.2464,-1274.4725,-84.9252
25.78,-0.0773,-0.0141,5.5574,-62.5970,177.3575,-1275.7244,-84.9266
25.80,-0.0772,-0.0140,5.5558,-62.5973,177.4687,-1276.9764,-84.9280
25.82,-0.0772,-0.0139,5.5543,-62.5976,177.5797,-1278.2283,-84.9294
25.84,-0.0771,-0.0139,5.5527,-62.5979,177.6908,-1279.4803,-84.9309
25.86,-0.0771,-0.0138,5.5512,-62.5982,177.8018,-1280.7323,-84.9323
25.88,-0.0770,-0.0137,5.5496,-62.5984,177.9128,-1281.9842,-84.9337
25.90,-0.0770,-0.0136,5.5481,-62.5987,178.0238,-1283.2362,-84.9351
25.92,-0.0770,-0.0135,5.5466,-62.5990,178.1347,-1284.4882,-84.9365
25.94,-0.0769,-0.0134,5.5450,-62.5992,178.2456,-1285.7402,-84.9380
25.96,-0.0769,-0.0133,5.5435,-62.5995,178.3565,-1286.9921,-84.9394
25.98,-0.0768,-0.0133,5.5420,-62.5998,178.4673,-1288.2441,-84.9408
26.00,-0.0768,-0.0132,5.5404,-62.6000,178.5781,-1289.4961,-84.9422
26.02,-0.0767,-0.0131,5.5389,-62.6003,178.6889,-1290.7481,-84.9436
26.04,-0.0767,-0.0130,5.5373,-62.6006,178.7996,-1292.0002,-84.9450
26.06,-0.0767,-0.0129,5.5358,-62.6008,178.9104,-1293.2522,-84.9465
26.08,-0.0766,-0.0128,5.5343,-62.6011,179.0210,-1294.5042,-84.9479
26.10,-0.0766,-0.0128,5.5328,-62.6013,179.1317,-1295.7562,-84.9493
26.12,-0.0765,-0.0127,5.5312,-62.6016,179.2423,-1297.0083,-84.9507
26.14,-0.0765,-0.0126,5.5297,-62.6018,179.3529,-1298.2603,-84.9521
26.16,-0.0764,-0.0125,5.5282,-62.6021,179.4635,-1299.5123,-84.9535
26.18,-0.0764,-0.0124,5.5266,-62.6023,179.5740,-1300.7644,-84.9549
26.20,-0.0764,-0.0124,5.5251,-62.6026,179.6845,-1302.0164,-84.9563
26.22,-0.0763,-0.0123,5.5236,-62.6028,179.7950,-1303.2685,-84.9577
26.24,-0.0763,-0.0122,5.5221,-62.6031,179.9054,-1304.5205,-84.9591
26.26,-0.0762,-0.0121,5.5205,-62.6033,180.0158,-1305.7726,-84.9605
26.28,-0.0762,-0.0121,5.5190,-62.6036,180.1262,-1307.0247,-84.9619
26.30,-0.0761,-0.0120,5.5175,-62.6038,180.2366,-1308.2768,-84.9633
26.32,-0.0761,-0.0119,5.5160,-62.6040,180.3469,-1309.5288,-84.9647
26.34,-0.0761,-0.0118,5.5144,-62.6043,180.4572,-1310.7809,-84.9661
26.36,-0.0760,-0.0118,5.5129,-62.6045,180.5674,-1312.0330,-84.9675
26.38,-0.0760,-0.0117,5.5114,-62.6047,180.6777,-1313.2851,-84.9689
26.40,-0.0759,-0.0116,5.5099,-62.6050,180.7879,-1314.5372,-84.9703
26.42,-0.0759,-0.0115,5.5084,-62.6052,180.8980,-1315.7893,-84.9717
26.44,-0.0759,-0.0115,5.5068,-62.6054,181.0082,-1317.0414,-84.9731
26.46,-0.0758,-0.0114,5.5053,-62.6057,181.1183,-1318.2935,-84.9745
26.48,-0.0758,-0.0113,5.5038,-62.6059,181.2284,-1319.5457,-84.9759
26.50,-0.0757,-0.0113,5.5023,-62.6061,181.3384,-1320.7978,-84.9773
26.52,-0.0757,-0.0112,5.5008,-62.6063,181.4484,-1322.0499,-84.9787
26.54,-0.0756,-0.0111,5.4993,-62.6066,181.5584,-1323.3020,-84.9801
26.56,-0.0756,-0.0110,5.4978,-62.6068,181.6684,-1324.5542,-84.9815
26.58,-0.0756,-0.0110,5.4963,-62.6070,181.7783,-1325.8063,-84.9829
26.60,-0.0755,-0.0109,5.4947,-62.6072,181.8882,-1327.0585,-84.9843
26.62,-0.0755,-0.0108,5.4932,-62.6074,181.9980,-1328.3106,-84.9857
26.64,-0.0754,-0.0108,5.4917,-62.6076,182.1079,-1329.5628,-84.9870
26.66,-0.0754,-0.0107,5.4902,-62.6079,182.2177,-1330.8149,-84.9884
26.68,-0.0754,-0.0106,5.4887,-62.6081,182.3275,-1332.0671,-84.9898
26.70,-0.0753,-0.0106,5.4872,-62.6083,182.4372,-1333.3192,-84.9912
26.72,-0.0753,-0.0105,5.4857,-62.6085,182.5469,-1334.5714,-84.9926
26.74,-0.0752,-0.0104,5.4842,-62.6087,182.6566,-1335.8236,-84.9940
26.76,-0.0752,-0.0104,5.4827,-62.6089,182.7662,-1337.0758,-84.9954
26.78,-0.0751,-0.0103,5.4812,-62.6091,182.8759,-1338.3279,-84.9967
26.80,-0.0751,-0.0102,5.4797,-62.6093,182.9855,-1339.5801,-84.9981
26.82,-0.0751,-0.0102,5.4782,-62.6095,183.0950,-1340.8323,-84.9995
26.84,-0.0750,-0.0101,5.4767,-62.6097,183.2046,-1342.0845,-85.0009
26.86,-0.0750,-0.0101,5.4752,-62.6099,183.3141,-1343.3367,-85.0023
26.88,-0.0749,-0.0100,5.4737,-62.6101,183.4235,-1344.5889,-85.0036
26.90,-0.0749,-0.0099,5.4722,-62.6103,183.5330,-1345.8411,-85.0050
26.92,-0.0749,-0.0099,5.4707,-62.6105,183.6424,-1347.0933,-85.0064
26.94,-0.0748,-0.0098,5.4692,-62.6107,183.7518,-1348.3455,-85.0078
26.96,-0.0748,-0.0097,5.4677,-62.6109,183.8611,-1349.5978,-85.0091
26.98,-0.0747,-0.0097,5.4662,-62.6111,183.9705,-1350.8500,-85.0105
27.00,-0.0747,-0.0096,5.4647,-62.6113,184.0798,-1352.1022,-85.0119
27.02,-0.0747,-0.0096,5.4632,-62.6115,184.1890,-1353.3544,-85.0132
27.04,-0.0746,-0.0095,5.4617,-62.6117,184.2983,-1354.6067,-85.0146
27.06,-0.0746,-0.0094,5.4602,-62.6119,184.4075,-1355.8589,-85.0160
27.08,-0.0745,-0.0094,5.4587,-62.6121,184.5166,-1357.1112,-85.0174
27.10,-0.0745,-0.0093,5.4572,-62.6122,184.6258,-1358.3634,-85.0187
27.12,-0.0745,-0.0093,5.4558,-62.6124,184.7349,-1359.6157,-85.0201
27.14,-0.0744,-0.0092,5.4543,-62.6126,184.8440,-1360.8679,-85.0215
27.16,-0.0744,-0.0092,5.4528,-62.6128,184.9530,-1362.1202,-85.0228
27.18,-0.0743,-0.0091,5.4513,-62.6130,185.0621,-1363.3724,-85.0242
27.20,-0.0743,-0.0090,5.4498,-62.6132,185.1711,-1364.6247,-85.0255
27.22,-0.0743,-0.0090,5.4483,-62.6133,185.2800,-1365.8769,-85.0269
27.24,-0.0742,-0.0089,5.4468,-62.6135,185.3890,-1367.1292,-85.0283
27.26,-0.0742,-0.0089,5.4454,-62.6137,185.4979,-1368.3815,-85.0296
27.28,-0.0741,-0.0088,5.4439,-62.6139,185.6067,-1369.6338,-85.0310
27.30,-0.0741,-0.0088,5.4424,-62.6140,185.7156,-1370.8861,-85.0324
27.32,-0.0740,-0.0087,5.4409,-62.6142,185.8244,-1372.1383,-85.0337
27.34,-0.0740,-0.0086,5.4394,-62.6144,185.9332,-1373.3906,-85.0351
27.36,-0.0740,-0.0086,5.4380,-62.6146,186.0420,-1374.6429,-85.0364
27.38,-0.0739,-0.0085,5.4365,-62.6147,186.1507,-1375.8952,-85.0378
27.40,-0.0739,-0.0085,5.4350,-62.6149,186.2594,-1377.1475,-85.0391
27.42,-0.0738,-0.0084,5.4335,-62.6151,186.3681,-1378.3998,-85.0405
27.44,-0.0738,-0.0084,5.4320,-62.6152,186.4767,-1379.6521,-85.0418
27.46,-0.0738,-0.0083,5.4306,-62.6154,186.5853,-1380.9044,-85.0432
27.48,-0.0737,-0.0083,5.4291,-62.6156,186.6939,-1382.1567,-85.0446
27.50,-0.0737,-0.0082,5.4276,-62.6157,186.8024,-1383.4090,-85.0459
27.52,-0.0736,-0.0082,5.4261,-62.6159,186.9110,-1384.6614,-85.0473
27.54,-0.0736,-0.0081,5.4247,-62.6161,187.0195,-1385.9137,-85.0486
27.56,-0.0736,-0.0081,5.4232,-62.6162,187.1279,-1387.1660,-85.0500
27.58,-0.0735,-0.0080,5.4217,-62.6164,187.2364,-1388.4183,-85.0513
27.60,-0.0735,-0.0080,5.4203,-62.6165,187.3448,-1389.6707,-85.0526
27.62,-0.0734,-0.0079,5.4188,-62.6167,187.4531,-1390.9230,-85.0540
27.64,-0.0734,-0.0079,5.4173,-62.6169,187.5615,-1392.1753,-85.0553
27.66,-0.0734,-0.0078,5.4159,-62.6170,187.6698,-1393.4277,-85.0567
27.68,-0.0733,-0.0078,5.4144,-62.6172,187.7781,-1394.6800,-85.0580
27.70,-0.0733,-0.0077,5.4129,-62.6173,187.8863,-1395.9324,-85.0594
27.72,-0.0732,-0.0077,5.4115,-62.6175,187.9946,-1397.1847,-85.0607
27.74,-0.0732,-0.0076,5.4100,-62.6176,188.1028,-1398.4371,-85.0621
27.76,-0.0732,-0.0076,5.4085,-62.6178,188.2109,-1399.6894,-85.0634
27.78,-0.0731,-0.0075,5.4071,-62.6179,188.3191,-1400.9418,-85.0647
27.80,-0.0731,-0.0075,5.4056,-62.6181,188.4272,-1402.1942,-85.0661
27.82,-0.0731,-0.0074,5.4041,-62.6182,188.5353,-1403.4465,-85.0674
27.84,-0.0730,-0.0074,5.4027,-62.6184,188.6433,-1404.6989,-85.0688
27.86,-0.0730,-0.0073,5.4012,-62.6185,188.7514,-1405.9513,-85.0701
27.88,-0.0729,-0.0073,5.3998,-62.6187,188.8594,-1407.2036,-85.0714
27.90,-0.0729,-0.0073,5.3983,-62.6188,188.9673,-1408.4560,-85.0728
27.92,-0.0729,-0.0072,5.3969,-62.6190,189.0753,-1409.7084,-85.0741
27.94,-0.0728,-0.0072,5.3954,-62.6191,189.1832,-1410.9608,-85.0754
27.96,-0.0728,-0.0071,5.3939,-62.6193,189.2911,-1412.2132,-85.0768
27.98,-0.0727,-0.0071,5.3925,-62.6194,189.3989,-1413.4655,-85.0781
28.00,-0.0727,-0.0070,5.3910,-62.6195,189.5067,-1414.7179,-85.0794
28.02,-0.0727,-0.0070,5.3896,-62.6197,189.6145,-1415.9703,-85.0808
28.04,-0.0726,-0.0069,5.3881,-62.6198,189.7223,-1417.2227,-85.0821
28.06,-0.0726,-0.0069,5.3867,-62.6199,189.8300,-1418.4751,-85.0834
28.08,-0.0725,-0.0069,5.3852,-62.6201,189.9377,-1419.7275,-85.0847
28.10,-0.0725,-0.0068,5.3838,-62.6202,190.0454,-1420.9799,-85.0861
28.12,-0.0725,-0.0068,5.3823,-62.6204,190.1530,-1422.2323,-85.0874
28.14,-0.0724,-0.0067,5.3809,-62.6205,190.2607,-1423.4847,-85.0887
28.16,-0.0724,-0.0067,5.3794,-62.6206,190.3682,-1424.7372,-85.0901
28.18,-0.0723,-0.0066,5.3780,-62.6208,190.4758,-1425.9896,-85.0914
28.20,-0.0723,-0.0066,5.3765,-62.6209,190.5833,-1427.2420,-85.0927
28.22,-0.0723,-0.0066,5.3751,-62.6210,190.6908,-1428.4944,-85.0940
28.24,-0.0722,-0.0065,5.3736,-62.6212,190.7983,-1429.7468,-85.0953
28.26,-0.0722,-0.0065,5.3722,-62.6213,190.9058,-1430.9993,-85.0967
28.28,-0.0722,-0.0064,5.3708,-62.6214,191.0132,-1432.2517,-85.0980
28.30,-0.0721,-0.0064,5.3693,-62.6215,191.1206,-1433.5041,-85.0993
28.32,-0.0721,-0.0064,5.3679,-62.6217,191.2279,-1434.7565,-85.1006
28.34,-0.0720,-0.0063,5.3664,-62.6218,191.3352,-1436.0090,-85.1019
28.36,-0.0720,-0.0063,5.3650,-62.6219,191.4425,-1437.2614,-85.1033
28.38,-0.0720,-0.0062,5.3636,-62.6220,191.5498,-1438.5139,-85.1046
28.40,-0.0719,-0.0062,5.3621,-62.6222,191.6571,-1439.7663,-85.1059
28.42,-0.0719,-0.0062,5.3607,-62.6223,191.7643,-1441.0188,-85.1072
28.44,-0.0718,-0.0061,5.3592,-62.6224,191.8715,-1442.2712,-85.1085
28.46,-0.0718,-0.0061,5.3578,-62.6225,191.9786,-1443.5237,-85.1098
28.48,-0.0718,-0.0060,5.3564,-62.6227,192.0857,-1444.7761,-85.1112
28.50,-0.0717,-0.0060,5.3549,-62.6228,192.1928,-1446.0286,-85.1125
28.52,-0.0717,-0.0060,5.3535,-62.6229,192.2999,-1447.2810,-85.1138
28.54,-0.0717,-0.0059,5.3521,-62.6230,192.4069,-1448.5335,-85.1151
28.56,-0.0716,-0.0059,5.3506,-62.6231,192.5140,-1449.7859,-85.1164
28.58,-0.0716,-0.0059,5.3492,-62.6232,192.6209,-1451.0384,-85.1177
28.60,-0.0715,-0.0058,5.3478,-62.6234,192.7279,-1452.2909,-85.1190
28.62,-0.0715,-0.0058,5.3463,-62.6235,192.8348,-1453.5433,-85.1203
28.64,-0.0715,-0.0057,5.3449,-62.6236,192.9417,-1454.7958,-85.1216
28.66,-0.0714,-0.0057,5.3435,-62.6237,193.0486,-1456.0483,-85.1229
28.68,-0.0714,-0.0057,5.3421,-62.6238,193.1554,-1457.3008,-85.1242
28.70,-0.0713,-0.0056,5.3406,-62.6239,193.2622,-1458.5532,-85.1255
28.72,-0.0713,-0.0056,5.3392,-62.6240,193.3690,-1459.8057,-85.1269
28.74,-0.0713,-0.0056,5.3378,-62.6242,193.4758,-1461.0582,-85.1282
28.76,-0.0712,-0.0055,5.3364,-62.6243,193.5825,-1462.3107,-85.1295
28.78,-0.0712,-0.0055,5.3349,-62.6244,193.6892,-1463.5632,-85.1308
28.80,-0.0712,-0.0055,5.3335,-62.6245,193.7959,-1464.8157,-85.1321
28.82,-0.0711,-0.0054,5.3321,-62.6246,193.9025,-1466.0682,-85.1334
28.84,-0.0711,-0.0054,5.3307,-62.6247,194.0091,-1467.3207,-85.1347
28.86,-0.0710,-0.0054,5.3292,-62.6248,194.1157,-1468.5732,-85.1360
28.88,-0.0710,-0.0053,5.3278,-62.6249,194.2223,-1469.8257,-85.1373
28.90,-0.0710,-0.0053,5.3264,-62.6250,194.3288,-1471.0782,-85.1386
28.92,-0.0709,-0.0053,5.3250,-62.6251,194.4353,-1472.3307,-85.1399
28.94,-0.0709,-0.0052,5.3236,-62.6252,194.5418,-1473.5832,-85.1411
28.96,-0.0709,-0.0052,5.3222,-62.6253,194.6482,-1474.8357,-85.1424
28.98,-0.0708,-0.0052,5.3207,-62.6254,194.7546,-1476.0882,-85.1437
29.00,-0.0708,-0.0051,5.3193,-62.6255,194.8610,-1477.3407,-85.1450
29.02,-0.0707,-0.0051,5.3179,-62.6256,194.9674,-1478.5932,-85.1463
29.04,-0.0707,-0.0051,5.3165,-62.6257,195.0737,-1479.8457,-85.1476
29.06,-0.0707,-0.0050,5.3151,-62.6259,195.1800,-1481.0982,-85.1489
29.08,-0.0706,-0.0050,5.3137,-62.6260,195.2863,-1482.3508,-85.1502
29.10,-0.0706,-0.0050,5.3123,-62.6261,195.3925,-1483.6033,-85.1515
29.12,-0.0706,-0.0049,5.3108,-62.6261,195.4987,-1484.8558,-85.1528
29.14,-0.0705,-0.0049,5.3094,-62.6262,195.6049,-1486.1083,-85.1541
29.16,-0.0705,-0.0049,5.3080,-62.6263,195.7111,-1487.3608,-85.1554
29.18,-0.0704,-0.0049,5.3066,-62.6264,195.8172,-1488.6134,-85.1566
29.20,-0.0704,-0.0048,5.3052,-62.6265,195.9233,-1489.8659,-85.1579
29.22,-0.0704,-0.0048,5.3038,-62.6266,196.0294,-1491.1184,-85.1592
29.24,-0.0703,-0.0048,5.3024,-62.6267,196.1355,-1492.3710,-85.1605
29.26,-0.0703,-0.0047,5.3010,-62.6268,196.2415,-1493.6235,-85.1618
29.28,-0.0703,-0.0047,5.2996,-62.6269,196.3475,-1494.8760,-85.1631
29.30,-0.0702,-0.0047,5.2982,-62.6270,196.4534,-1496.1286,-85.1643
29.32,-0.0702,-0.0046,5.2968,-62.6271,196.5594,-1497.3811,-85.1656
29.34,-0.0701,-0.0046,5.2954,-62.6272,196.6653,-1498.6337,-85.1669
29.36,-0.0701,-0.0046,5.2940,-62.6273,196.7712,-1499.8862,-85.1682
29.38,-0.0701,-0.0046,5.2926,-62.6274,196.8770,-1501.1388,-85.1695
29.40,-0.0700,-0.0045,5.2912,-62.6275,196.9828,-1502.3913,-85.1708
29.42,-0.0700,-0.0045,5.2898,-62.6276,197.0886,-1503.6439,-85.1720
29.44,-0.0700,-0.0045,5.2884,-62.6276,197.1944,-1504.8964,-85.1733
29.46,-0.0699,-0.0044,5.2870,-62.6277,197.3001,-1506.1490,-85.1746
29.48,-0.0699,-0.0044,5.2856,-62.6278,197.4058,-1507.4015,-85.1759
29.50,-0.0698,-0.0044,5.2842,-62.6279,197.5115,-1508.6541,-85.1771
29.52,-0.0698,-0.0044,5.2828,-62.6280,197.6172,-1509.9067,-85.1784
29.54,-0.0698,-0.0043,5.2814,-62.6281,197.7228,-1511.1592,-85.1797
29.56,-0.0697,-0.0043,5.2800,-62.6282,197.8284,-1512.4118,-85.1810
29.58,-0.0697,-0.0043,5.2786,-62.6283,197.9340,-1513.6643,-85.1822
29.60,-0.0697,-0.0043,5.2772,-62.6283,198.0395,-1514.9169,-85.1835
29.62,-0.0696,-0.0042,5.2758,-62.6284,198.1450,-1516.1695,-85.1848
29.64,-0.0696,-0.0042,5.2744,-62.6285,198.2505,-1517.4220,-85.1860
29.66,-0.0695,-0.0042,5.2730,-62.6286,198.3560,-1518.6746,-85.1873
29.68,-0.0695,-0.0041,5.2716,-62.6287,198.4614,-1519.9272,-85.1886
29.70,-0.0695,-0.0041,5.2703,-62.6288,198.5668,-1521.1798,-85.1899
29.72,-0.0694,-0.0041,5.2689,-62.6288,198.6722,-1522.4323,-85.1911
29.74,-0.0694,-0.0041,5.2675,-62.6289,198.7776,-1523.6849,-85.1924
29.76,-0.0694,-0.0040,5.2661,-62.6290,198.8829,-1524.9375,-85.1937
29.78,-0.0693,-0.0040,5.2647,-62.6291,198.9882,-1526.1901,-85.1949
29.80,-0.0693,-0.0040,5.2633,-62.6292,199.0934,-1527.4427,-85.1962
29.82,-0.0693,-0.0040,5.2619,-62.6292,199.1987,-1528.6953,-85.1975
29.84,-0.0692,-0.0039,5.2605,-62.6293,199.3039,-1529.9478,-85.1987
29.86,-0.0692,-0.0039,5.2592,-62.6294,199.4091,-1531.2004,-85.2000
29.88,-0.0691,-0.0039,5.2578,-62.6295,199.5142,-1532.4530,-85.2012
29.90,-0.0691,-0.0039,5.2564,-62.6296,199.6194,-1533.7056,-85.2025
29.92,-0.0691,-0.0038,5.2550,-62.6296,199.7245,-1534.9582,-85.2038
29.94,-0.0690,-0.0038,5.2536,-62.6297,199.8295,-1536.2108,-85.2050
29.96,-0.0690,-0.0038,5.2523,-62.6298,199.9346,-1537.4634,-85.2063
29.98,-0.0690,-0.0038,5.2509,-62.6299,200.0396,-1538.7160,-85.2075
30.00,-0.0689,-0.0038,5.2495,-62.6299,200.1446,-1539.9686,-85.2088
30.02,-0.0689,-0.0037,5.2481,-62.6300,200.2495,-1541.2212,-85.2101
30.04,-0.0689,-0.0037,5.2467,-62.6301,200.3545,-1542.4738,-85.2113
30.06,-0.0688,-0.0037,5.2454,-62.6302,200.4594,-1543.7264,-85.2126
30.08,-0.0688,-0.0037,5.2440,-62.6302,200.5643,-1544.9790,-85.2138
30.10,-0.0687,-0.0036,5.2426,-62.6303,200.6691,-1546.2316,-85.2151
30.12,-0.0687,-0.0036,5.2412,-62.6304,200.7739,-1547.4842,-85.2163
30.14,-0.0687,-0.0036,5.2399,-62.6305,200.8787,-1548.7368,-85.2176
30.16,-0.0686,-0.0036,5.2385,-62.6305,200.9835,-1549.9894,-85.2188
30.18,-0.0686,-0.0035,5.2371,-62.6306,201.0883,-1551.2420,-85.2201
30.20,-0.0686,-0.0035,5.2357,-62.6307,201.1930,-1552.4947,-85.2213
30.22,-0.0685,-0.0035,5.2344,-62.6307,201.2977,-1553.7473,-85.2226
30.24,-0.0685,-0.0035,5.2330,-62.6308,201.4023,-1554.9999,-85.2238
30.26,-0.0685,-0.0035,5.2316,-62.6309,201.5069,-1556.2525,-85.2251
30.28,-0.0684,-0.0034,5.2303,-62.6309,201.6116,-1557.5051,-85.2263
30.30,-0.0684,-0.0034,5.2289,-62.6310,201.7161,-1558.7577,-85.2276
30.32,-0.0684,-0.0034,5.2275,-62.6311,201.8207,-1560.0104,-85.2288
30.34,-0.0683,-0.0034,5.2262,-62.6311,201.9252,-1561.2630,-85.2301
30.36,-0.0683,-0.0033,5.2248,-62.6312,202.0297,-1562.5156,-85.2313
30.38,-0.0682,-0.0033,5.2234,-62.6313,202.1342,-1563.7682,-85.2326
30.40,-0.0682,-0.0033,5.2221,-62.6313,202.2386,-1565.0209,-85.2338
30.42,-0.0682,-0.0033,5.2207,-62.6314,202.3430,-1566.2735,-85.2351
30.44,-0.0681,-0.0033,5.2193,-62.6315,202.4474,-1567.5261,-85.2363
30.46,-0.0681,-0.0032,5.2180,-62.6315,202.5518,-1568.7788,-85.2375
30.48,-0.0681,-0.0032,5.2166,-62.6316,202.6561,-1570.0314,-85.2388
30.50,-0.0680,-0.0032,5.2153,-62.6317,202.7604,-1571.2840,-85.2400
30.52,-0.0680,-0.0032,5.2139,-62.6317,202.8647,-1572.5367,-85.2413
30.54,-0.0680,-0.0032,5.2125,-62.6318,202.9689,-1573.7893,-85.2425
30.56,-0.0679,-0.0031,5.2112,-62.6319,203.0732,-1575.0419,-85.2437
30.58,-0.0679,-0.0031,5.2098,-62.6319,203.1774,-1576.2946,-85.2450
30.60,-0.0679,-0.0031,5.2085,-62.6320,203.2815,-1577.5472,-85.2462
30.62,-0.0678,-0.0031,5.2071,-62.6320,203.3857,-1578.7998,-85.2475
30.64,-0.0678,-0.0031,5.2058,-62.6321,203.4898,-1580.0525,-85.2487
30.66,-0.0677,-0.0030,5.2044,-62.6322,203.5939,-1581.3051,-85.2499
30.68,-0.0677,-0.0030,5.2031,-62.6322,203.6979,-1582.5578,-85.2512
30.70,-0.0677,-0.0030,5.2017,-62.6323,203.8020,-1583.8104,-85.2524
30.72,-0.0676,-0.0030,5.2003,-62.6323,203.9060,-1585.0631,-85.2536
30.74,-0.0676,-0.0030,5.1990,-62.6324,204.0100,-1586.3157,-85.2549
30.76,-0.0676,-0.0030,5.1976,-62.6325,204.1139,-1587.5684,-85.2561
30.78,-0.0675,-0.0029,5.1963,-62.6325,204.2178,-1588.8210,-85.2573
30.80,-0.0675,-0.0029,5.1949,-62.6326,204.3217,-1590.0737,-85.2586
30.82,-0.0675,-0.0029,5.1936,-62.6326,204.4256,-1591.3263,-85.2598
30.84,-0.0674,-0.0029,5.1922,-62.6327,204.5295,-1592.5790,-85.2610
30.86,-0.0674,-0.0029,5.1909,-62.6328,204.6333,-1593.8316,-85.2623
30.88,-0.0674,-0.0028,5.1895,-62.6328,204.7371,-1595.0843,-85.2635
30.90,-0.0673,-0.0028,5.1882,-62.6329,204.8408,-1596.3369,-85.2647
30.92,-0.0673,-0.0028,5.1869,-62.6329,204.9446,-1597.5896,-85.2659
30.94,-0.0673,-0.0028,5.1855,-62.6330,205.0483,-1598.8423,-85.2672
30.96,-0.0672,-0.0028,5.1842,-62.6330,205.1520,-1600.0949,-85.2684
30.98,-0.0672,-0.0028,5.1828,-62.6331,205.2556,-1601.3476,-85.2696
31.00,-0.0672,-0.0027,5.1815,-62.6331,205.3592,-1602.6002,-85.2708
31.02,-0.0671,-0.0027,5.1801,-62.6332,205.4628,-1603.8529,-85.2721
31.04,-0.0671,-0.0027,5.1788,-62.6333,205.5664,-1605.1056,-85.2733
31.06,-0.0670,-0.0027,5.1775,-62.6333,205.6700,-1606.3582,-85.2745
31.08,-0.0670,-0.0027,5.1761,-62.6334,205.7735,-1607.6109,-85.2757
31.10,-0.0670,-0.0027,5.1748,-62.6334,205.8770,-1608.8636,-85.2769
31.12,-0.0669,-0.0026,5.1734,-62.6335,205.9805,-1610.1162,-85.2782
31.14,-0.0669,-0.0026,5.1721,-62.6335,206.0839,-1611.3689,-85.2794
31.16,-0.0669,-0.0026,5.1708,-62.6336,206.1873,-1612.6216,-85.2806
31.18,-0.0668,-0.0026,5.1694,-62.6336,206.2907,-1613.8743,-85.2818
31.20,-0.0668,-0.0026,5.1681,-62.6337,206.3941,-1615.1269,-85.2830
31.22,-0.0668,-0.0026,5.1667,-62.6337,206.4974,-1616.3796,-85.2843
31.24,-0.0667,-0.0025,5.1654,-62.6338,206.6007,-1617.6323,-85.2855
31.26,-0.0667,-0.0025,5.1641,-62.6338,206.7040,-1618.8850,-85.2867
31.28,-0.0667,-0.0025,5.1627,-62.6339,206.8072,-1620.1376,-85.2879
31.30,-0.0666,-0.0025,5.1614,-62.6339,206.9105,-1621.3903,-85.2891
31.32,-0.0666,-0.0025,5.1601,-62.6340,207.0137,-1622.6430,-85.2903
31.34,-0.0666,-0.0025,5.1588,-62.6340,207.1168,-1623.8957,-85.2916
31.36,-0.0665,-0.0024,5.1574,-62.6341,207.2200,-1625.1484,-85.2928
31.38,-0.0665,-0.0024,5.1561,-62.6341,207.3231,-1626.4010,-85.2940
31.40,-0.0665,-0.0024,5.1548,-62.6342,207.4262,-1627.6537,-85.2952
31.42,-0.0664,-0.0024,5.1534,-62.6342,207.5293,-1628.9064,-85.2964
31.44,-0.0664,-0.0024,5.1521,-62.6343,207.6323,-1630.1591,-85.2976
31.46,-0.0664,-0.0024,5.1508,-62.6343,207.7353,-1631.4118,-85.2988
31.48,-0.0663,-0.0024,5.1495,-62.6344,207.8383,-1632.6645,-85.3000
31.50,-0.0663,-0.0023,5.1481,-62.6344,207.9413,-1633.9172,-85.3012
31.52,-0.0663,-0.0023,5.1468,-62.6345,208.0442,-1635.1698,-85.3024
31.54,-0.0662,-0.0023,5.1455,-62.6345,208.1471,-1636.4225,-85.3037
31.56,-0.0662,-0.0023,5.1442,-62.6345,208.2500,-1637.6752,-85.3049
31.58,-0.0662,-0.0023,5.1428,-62.6346,208.3529,-1638.9279,-85.3061
31.60,-0.0661,-0.0023,5.1415,-62.6346,208.4557,-1640.1806,-85.3073
31.62,-0.0661,-0.0023,5.1402,-62.6347,208.5585,-1641.4333,-85.3085
31.64,-0.0661,-0.0022,5.1389,-62.6347,208.6613,-1642.6860,-85.3097
31.66,-0.0660,-0.0022,5.1375,-62.6348,208.7640,-1643.9387,-85.3109
31.68,-0.0660,-0.0022,5.1362,-62.6348,208.8668,-1645.1914,-85.3121
31.70,-0.0660,-0.0022,5.1349,-62.6349,208.9695,-1646.4441,-85.3133
31.72,-0.0659,-0.0022,5.1336,-62.6349,209.0721,-1647.6968,-85.3145
31.74,-0.0659,-0.0022,5.1323,-62.6350,209.1748,-1648.9495,-85.3157
31.76,-0.0659,-0.0022,5.1310,-62.6350,209.2774,-1650.2022,-85.3169
31.78,-0.0658,-0.0021,5.1296,-62.6350,209.3800,-1651.4549,-85.3181
31.80,-0.0658,-0.0021,5.1283,-62.6351,209.4826,-1652.7076,-85.3193
31.82,-0.0657,-0.0021,5.1270,-62.6351,209.5851,-1653.9603,-85.3205
31.84,-0.0657,-0.0021,5.1257,-62.6352,209.6876,-1655.2130,-85.3217
31.86,-0.0657,-0.0021,5.1244,-62.6352,209.7901,-1656.4657,-85.3229
31.88,-0.0656,-0.0021,5.1231,-62.6352,209.8926,-1657.7184,-85.3241
31.90,-0.0656,-0.0021,5.1218,-62.6353,209.9950,-1658.9711,-85.3253
31.92,-0.0656,-0.0021,5.1204,-62.6353,210.0974,-1660.2238,-85.3265
31.94,-0.0655,-0.0020,5.1191,-62.6354,210.1998,-1661.4765,-85.3277
31.96,-0.0655,-0.0020,5.1178,-62.6354,210.3021,-1662.7292,-85.3288
31.98,-0.0655,-0.0020,5.1165,-62.6355,210.4045,-1663.9819,-85.3300
32.00,-0.0654,-0.0020,5.1152,-62.6355,210.5068,-1665.2347,-85.3312
32.02,-0.0654,-0.0020,5.1139,-62.6355,210.6091,-1666.4874,-85.3324
32.04,-0.0654,-0.0020,5.1126,-62.6356,210.7113,-1667.7401,-85.3336
32.06,-0.0653,-0.0020,5.1113,-62.6356,210.8135,-1668.9928,-85.3348
32.08,-0.0653,-0.0020,5.1100,-62.6356,210.9157,-1670.2455,-85.3360
32.10,-0.0653,-0.0019,5.1087,-62.6357,211.0179,-1671.4982,-85.3372
32.12,-0.0652,-0.0019,5.1074,-62.6357,211.1200,-1672.7509,-85.3384
32.14,-0.0652,-0.0019,5.1061,-62.6358,211.2222,-1674.0036,-85.3396
32.16,-0.0652,-0.0019,5.1048,-62.6358,211.3243,-1675.2564,-85.3408
32.18,-0.0651,-0.0019,5.1034,-62.6358,211.4263,-1676.5091,-85.3419
32.20,-0.0651,-0.0019,5.1021,-62.6359,211.5284,-1677.7618,-85.3431
32.22,-0.0651,-0.0019,5.1008,-62.6359,211.6304,-1679.0145,-85.3443
32.24,-0.0650,-0.0019,5.0995,-62.6360,211.7324,-1680.2672,-85.3455
32.26,-0.0650,-0.0018,5.0982,-62.6360,211.8343,-1681.5199,-85.3467
32.28,-0.0650,-0.0018,5.0969,-62.6360,211.9363,-1682.7727,-85.3479
32.30,-0.0649,-0.0018,5.0956,-62.6361,212.0382,-1684.0254,-85.3490
32.32,-0.0649,-0.0018,5.0943,-62.6361,212.1401,-1685.2781,-85.3502
32.34,-0.0649,-0.0018,5.0931,-62.6361,212.2419,-1686.5308,-85.3514
32.36,-0.0648,-0.0018,5.0918,-62.6362,212.3438,-1687.7836,-85.3526
32.38,-0.0648,-0.0018,5.0905,-62.6362,212.4456,-1689.0363,-85.3538
32.40,-0.0648,-0.0018,5.0892,-62.6362,212.5474,-1690.2890,-85.3550
32.42,-0.0647,-0.0018,5.0879,-62.6363,212.6491,-1691.5417,-85.3561
32.44,-0.0647,-0.0017,5.0866,-62.6363,212.7509,-1692.7945,-85.3573
32.46,-0.0647,-0.0017,5.0853,-62.6363,212.8526,-1694.0472,-85.3585
32.48,-0.0647,-0.0017,5.0840,-62.6364,212.9543,-1695.2999,-85.3597
32.50,-0.0646,-0.0017,5.0827,-62.6364,213.0559,-1696.5526,-85.3608
32.52,-0.0646,-0.0017,5.0814,-62.6364,213.1575,-1697.8054,-85.3620
32.54,-0.0646,-0.0017,5.0801,-62.6365,213.2591,-1699.0581,-85.3632
32.56,-0.0645,-0.0017,5.0788,-62.6365,213.3607,-1700.3108,-85.3644
32.58,-0.0645,-0.0017,5.0775,-62.6365,213.4623,-1701.5636,-85.3655
32.60,-0.0645,-0.0017,5.0762,-62.6366,213.5638,-1702.8163,-85.3667
32.62,-0.0644,-0.0016,5.0750,-62.6366,213.6653,-1704.0690,-85.3679
32.64,-0.0644,-0.0016,5.0737,-62.6366,213.7668,-1705.3218,-85.3691
32.66,-0.0644,-0.0016,5.0724,-62.6367,213.8682,-1706.5745,-85.3702
32.68,-0.0643,-0.0016,5.0711,-62.6367,213.9696,-1707.8272,-85.3714
32.70,-0.0643,-0.0016,5.0698,-62.6367,214.0710,-1709.0800,-85.3726
32.72,-0.0643,-0.0016,5.0685,-62.6368,214.1724,-1710.3327,-85.3737
32.74,-0.0642,-0.0016,5.0672,-62.6368,214.2737,-1711.5854,-85.3749
32.76,-0.0642,-0.0016,5.0660,-62.6368,214.3751,-1712.8382,-85.3761
32.78,-0.0642,-0.0016,5.0647,-62.6369,214.4764,-1714.0909,-85.3773
32.80,-0.0641,-0.0016,5.0634,-62.6369,214.5776,-1715.3436,-85.3784
32.82,-0.0641,-0.0015,5.0621,-62.6369,214.6789,-1716.5964,-85.3796
32.84,-0.0641,-0.0015,5.0608,-62.6370,214.7801,-1717.8491,-85.3808
32.86,-0.0640,-0.0015,5.0595,-62.6370,214.8813,-1719.1019,-85.3819
32.88,-0.0640,-0.0015,5.0583,-62.6370,214.9824,-1720.3546,-85.3831
32.90,-0.0640,-0.0015,5.0570,-62.6371,215.0836,-1721.6073,-85.3843
32.92,-0.0639,-0.0015,5.0557,-62.6371,215.1847,-1722.8601,-85.3854
32.94,-0.0639,-0.0015,5.0544,-62.6371,215.2858,-1724.1128,-85.3866
32.96,-0.0639,-0.0015,5.0531,-62.6371,215.3868,-1725.3656,-85.3877
32.98,-0.0638,-0.0015,5.0519,-62.6372,215.4879,-1726.6183,-85.3889
33.00,-0.0638,-0.0015,5.0506,-62.6372,215.5889,-1727.8711,-85.3901
33.02,-0.0638,-0.0015,5.0493,-62.6372,215.6899,-1729.1238,-85.3912
33.04,-0.0637,-0.0014,5.0480,-62.6373,215.7908,-1730.3765,-85.3924
33.06,-0.0637,-0.0014,5.0468,-62.6373,215.8918,-1731.6293,-85.3936
33.08,-0.0637,-0.0014,5.0455,-62.6373,215.9927,-1732.8820,-85.3947
33.10,-0.0636,-0.0014,5.0442,-62.6373,216.0936,-1734.1348,-85.3959
33.12,-0.0636,-0.0014,5.0430,-62.6374,216.1944,-1735.3875,-85.3970
33.14,-0.0636,-0.0014,5.0417,-62.6374,216.2953,-1736.6403,-85.3982
33.16,-0.0635,-0.0014,5.0404,-62.6374,216.3961,-1737.8930,-85.3993
33.18,-0.0635,-0.0014,5.0391,-62.6375,216.4969,-1739.1458,-85.4005
33.20,-0.0635,-0.0014,5.0379,-62.6375,216.5976,-1740.3985,-85.4017
33.22,-0.0635,-0.0014,5.0366,-62.6375,216.6983,-1741.6513,-85.4028
33.24,-0.0634,-0.0014,5.0353,-62.6375,216.7990,-1742.9040,-85.4040
33.26,-0.0634,-0.0013,5.0341,-62.6376,216.8997,-1744.1568,-85.4051
33.28,-0.0634,-0.0013,5.0328,-62.6376,217.0004,-1745.4095,-85.4063
33.30,-0.0633,-0.0013,5.0315,-62.6376,217.1010,-1746.6623,-85.4074
33.32,-0.0633,-0.0013,5.0303,-62.6376,217.2016,-1747.9150,-85.4086
33.34,-0.0633,-0.0013,5.0290,-62.6377,217.3022,-1749.1678,-85.4097
33.36,-0.0632,-0.0013,5.0277,-62.6377,217.4028,-1750.4205,-85.4109
33.38,-0.0632,-0.0013,5.0265,-62.6377,217.5033,-1751.6733,-85.4120
33.40,-0.0632,-0.0013,5.0252,-62.6377,217.6038,-1752.9261,-85.4132
33.42,-0.0631,-0.0013,5.0239,-62.6378,217.7043,-1754.1788,-85.4143
33.44,-0.0631,-0.0013,5.0227,-62.6378,217.8047,-1755.4316,-85.4155
33.46,-0.0631,-0.0013,5.0214,-62.6378,217.9051,-1756.6843,-85.4166
33.48,-0.0630,-0.0013,5.0202,-62.6379,218.0056,-1757.9371,-85.4178
33.50,-0.0630,-0.0012,5.0189,-62.6379,218.1059,-1759.1898,-85.4189
33.52,-0.0630,-0.0012,5.0176,-62.6379,218.2063,-1760.4426,-85.4201
33.54,-0.0629,-0.0012,5.0164,-62.6379,218.3066,-1761.6954,-85.4212
33.56,-0.0629,-0.0012,5.0151,-62.6380,218.4069,-1762.9481,-85.4224
33.58,-0.0629,-0.0012,5.0139,-62.6380,218.5072,-1764.2009,-85.4235
33.60,-0.0628,-0.0012,5.0126,-62.6380,218.6074,-1765.4536,-85.4246
33.62,-0.0628,-0.0012,5.0114,-62.6380,218.7077,-1766.7064,-85.4258
33.64,-0.0628,-0.0012,5.0101,-62.6380,218.8079,-1767.9592,-85.4269
33.66,-0.0628,-0.0012,5.0088,-62.6381,218.9080,-1769.2119,-85.4281
33.68,-0.0627,-0.0012,5.0076,-62.6381,219.0082,-1770.4647,-85.4292
33.70,-0.0627,-0.0012,5.0063,-62.6381,219.1083,-1771.7174,-85.4304
33.72,-0.0627,-0.0012,5.0051,-62.6381,219.2084,-1772.9702,-85.4315
33.74,-0.0626,-0.0012,5.0038,-62.6382,219.3085,-1774.2230,-85.4326
33.76,-0.0626,-0.0012,5.0026,-62.6382,219.4086,-1775.4757,-85.4338
33.78,-0.0626,-0.0011,5.0013,-62.6382,219.5086,-1776.7285,-85.4349
33.80,-0.0625,-0.0011,5.0001,-62.6382,219.6086,-1777.9813,-85.4361
33.82,-0.0625,-0.0011,4.9988,-62.6383,219.7086,-1779.2340,-85.4372
33.84,-0.0625,-0.0011,4.9976,-62.6383,219.8085,-1780.4868,-85.4383
33.86,-0.0624,-0.0011,4.9963,-62.6383,219.9084,-1781.7396,-85.4395
33.88,-0.0624,-0.0011,4.9951,-62.6383,220.0083,-1782.9923,-85.4406
33.90,-0.0624,-0.0011,4.9938,-62.6383,220.1082,-1784.2451,-85.4417
33.92,-0.0623,-0.0011,4.9926,-62.6384,220.2081,-1785.4979,-85.4429
33.94,-0.0623,-0.0011,4.9913,-62.6384,220.3079,-1786.7506,-85.4440
33.96,-0.0623,-0.0011,4.9901,-62.6384,220.4077,-1788.0034,-85.4451
33.98,-0.0623,-0.0011,4.9888,-62.6384,220.5075,-1789.2562,-85.4463
34.00,-0.0622,-0.0011,4.9876,-62.6385,220.6072,-1790.5089,-85.4474
34.02,-0.0622,-0.0011,4.9864,-62.6385,220.7070,-1791.7617,-85.4485
34.04,-0.0622,-0.0011,4.9851,-62.6385,220.8067,-1793.0145,-85.4497
34.06,-0.0621,-0.0010,4.9839,-62.6385,220.9063,-1794.2672,-85.4508
34.08,-0.0621,-0.0010,4.9826,-62.6385,221.0060,-1795.5200,-85.4519
34.10,-0.0621,-0.0010,4.9814,-62.6386,221.1056,-1796.7728,-85.4531
34.12,-0.0620,-0.0010,4.9802,-62.6386,221.2052,-1798.0256,-85.4542
34.14,-0.0620,-0.0010,4.9789,-62.6386,221.3048,-1799.2783,-85.4553
34.16,-0.0620,-0.0010,4.9777,-62.6386,221.4044,-1800.5311,-85.4565
34.18,-0.0619,-0.0010,4.9764,-62.6386,221.5039,-1801.7839,-85.4576
34.20,-0.0619,-0.0010,4.9752,-62.6387,221.6034,-1803.0366,-85.4587
34.22,-0.0619,-0.0010,4.9740,-62.6387,221.7029,-1804.2894,-85.4598
34.24,-0.0619,-0.0010,4.9727,-62.6387,221.8023,-1805.5422,-85.4610
34.26,-0.0618,-0.0010,4.9715,-62.6387,221.9017,-1806.7950,-85.4621
34.28,-0.0618,-0.0010,4.9702,-62.6387,222.0012,-1808.0477,-85.4632
34.30,-0.0618,-0.0010,4.9690,-62.6388,222.1005,-1809.3005,-85.4643
34.32,-0.0617,-0.0010,4.9678,-62.6388,222.1999,-1810.5533,-85.4655
34.34,-0.0617,-0.0010,4.9665,-62.6388,222.2992,-1811.8061,-85.4666
34.36,-0.0617,-0.0010,4.9653,-62.6388,222.3985,-1813.0588,-85.4677
34.38,-0.0616,-0.0009,4.9641,-62.6388,222.4978,-1814.3116,-85.4688
34.40,-0.0616,-0.0009,4.9628,-62.6389,222.5971,-1815.5644,-85.4699
34.42,-0.0616,-0.0009,4.9616,-62.6389,222.6963,-1816.8172,-85.4711
34.44,-0.0615,-0.0009,4.9604,-62.6389,222.7955,-1818.0700,-85.4722
34.46,-0.0615,-0.0009,4.9592,-62.6389,222.8947,-1819.3227,-85.4733
34.48,-0.0615,-0.0009,4.9579,-62.6389,222.9938,-1820.5755,-85.4744
34.50,-0.0615,-0.0009,4.9567,-62.6389,223.0930,-1821.8283,-85.4755
34.52,-0.0614,-0.0009,4.9555,-62.6390,223.1921,-1823.0811,-85.4767
34.54,-0.0614,-0.0009,4.9542,-62.6390,223.2912,-1824.3338,-85.4778
34.56,-0.0614,-0.0009,4.9530,-62.6390,223.3902,-1825.5866,-85.4789
34.58,-0.0613,-0.0009,4.9518,-62.6390,223.4893,-1826.8394,-85.4800
34.60,-0.0613,-0.0009,4.9506,-62.6390,223.5883,-1828.0922,-85.4811
34.62,-0.0613,-0.0009,4.9493,-62.6391,223.6873,-1829.3450,-85.4822
34.64,-0.0612,-0.0009,4.9481,-62.6391,223.7862,-1830.5978,-85.4834
34.66,-0.0612,-0.0009,4.9469,-62.6391,223.8852,-1831.8505,-85.4845
34.68,-0.0612,-0.0009,4.9457,-62.6391,223.9841,-1833.1033,-85.4856
34.70,-0.0611,-0.0009,4.9444,-62.6391,224.0830,-1834.3561,-85.4867
34.72,-0.0611,-0.0009,4.9432,-62.6391,224.1818,-1835.6089,-85.4878
34.74,-0.0611,-0.0008,4.9420,-62.6392,224.2807,-1836.8617,-85.4889
34.76,-0.0611,-0.0008,4.9408,-62.6392,224.3795,-1838.1144,-85.4900
34.78,-0.0610,-0.0008,4.9396,-62.6392,224.4783,-1839.3672,-85.4911
34.80,-0.0610,-0.0008,4.9383,-62.6392,224.5770,-1840.6200,-85.4923
34.82,-0.0610,-0.0008,4.9371,-62.6392,224.6758,-1841.8728,-85.4934
34.84,-0.0609,-0.0008,4.9359,-62.6392,224.7745,-1843.1256,-85.4945
34.86,-0.0609,-0.0008,4.9347,-62.6393,224.8732,-1844.3784,-85.4956
34.88,-0.0609,-0.0008,4.9335,-62.6393,224.9719,-1845.6312,-85.4967
34.90,-0.0608,-0.0008,4.9322,-62.6393,225.0705,-1846.8839,-85.4978
34.92,-0.0608,-0.0008,4.9310,-62.6393,225.1691,-1848.1367,-85.4989
34.94,-0.0608,-0.0008,4.9298,-62.6393,225.2677,-1849.3895,-85.5000
34.96,-0.0608,-0.0008,4.9286,-62.6393,225.3663,-1850.6423,-85.5011
34.98,-0.0607,-0.0008,4.9274,-62.6393,225.4648,-1851.8951,-85.5022
35.00,-0.0607,-0.0008,4.9262,-62.6394,225.5634,-1853.1479,-85.5033
35.02,-0.0607,-0.0008,4.9250,-62.6394,225.6619,-1854.4007,-85.5044
35.04,-0.0606,-0.0008,4.9237,-62.6394,225.7603,-1855.6534,-85.5055
35.06,-0.0606,-0.0008,4.9225,-62.6394,225.8588,-1856.9062,-85.5066
35.08,-0.0606,-0.0008,4.9213,-62.6394,225.9572,-1858.1590,-85.5077
35.10,-0.0605,-0.0008,4.9201,-62.6394,226.0556,-1859.4118,-85.5088
35.12,-0.0605,-0.0008,4.9189,-62.6395,226.1540,-1860.6646,-85.5099
35.14,-0.0605,-0.0007,4.9177,-62.6395,226.2524,-1861.9174,-85.5110
35.16,-0.0605,-0.0007,4.9165,-62.6395,226.3507,-1863.1702,-85.5121
35.18,-0.0604,-0.0007,4.9153,-62.6395,226.4490,-1864.4230,-85.5132
35.20,-0.0604,-0.0007,4.9141,-62.6395,226.5473,-1865.6758,-85.5143
35.22,-0.0604,-0.0007,4.9129,-62.6395,226.6455,-1866.9286,-85.5154
35.24,-0.0603,-0.0007,4.9116,-62.6395,226.7438,-1868.1813,-85.5165
35.26,-0.0603,-0.0007,4.9104,-62.6396,226.8420,-1869.4341,-85.5176
35.28,-0.0603,-0.0007,4.9092,-62.6396,226.9402,-1870.6869,-85.5187
35.30,-0.0603,-0.0007,4.9080,-62.6396,227.0383,-1871.9397,-85.5198
35.32,-0.0602,-0.0007,4.9068,-62.6396,227.1365,-1873.1925,-85.5209
35.34,-0.0602,-0.0007,4.9056,-62.6396,227.2346,-1874.4453,-85.5220
35.36,-0.0602,-0.0007,4.9044,-62.6396,227.3327,-1875.6981,-85.5231
35.38,-0.0601,-0.0007,4.9032,-62.6396,227.4307,-1876.9509,-85.5242
35.40,-0.0601,-0.0007,4.9020,-62.6397,227.5288,-1878.2037,-85.5253
35.42,-0.0601,-0.0007,4.9008,-62.6397,227.6268,-1879.4565,-85.5264
35.44,-0.0600,-0.0007,4.8996,-62.6397,227.7248,-1880.7093,-85.5275
35.46,-0.0600,-0.0007,4.8984,-62.6397,227.8227,-1881.9621,-85.5286
35.48,-0.0600,-0.0007,4.8972,-62.6397,227.9207,-1883.2149,-85.5297
35.50,-0.0600,-0.0007,4.8960,-62.6397,228.0186,-1884.4677,-85.5308
35.52,-0.0599,-0.0007,4.8948,-62.6397,228.1165,-1885.7204,-85.5319
35.54,-0.0599,-0.0007,4.8936,-62.6398,228.2144,-1886.9732,-85.5329
35.56,-0.0599,-0.0007,4.8924,-62.6398,228.3122,-1888.2260,-85.5340
35.58,-0.0598,-0.0006,4.8912,-62.6398,228.4100,-1889.4788,-85.5351
35.60,-0.0598,-0.0006,4.8900,-62.6398,228.5078,-1890.7316,-85.5362
35.62,-0.0598,-0.0006,4.8888,-62.6398,228.6056,-1891.9844,-85.5373
35.64,-0.0598,-0.0006,4.8876,-62.6398,228.7034,-1893.2372,-85.5384
35.66,-0.0597,-0.0006,4.8864,-62.6398,228.8011,-1894.4900,-85.5395
35.68,-0.0597,-0.0006,4.8852,-62.6398,228.8988,-1895.7428,-85.5406
35.70,-0.0597,-0.0006,4.8841,-62.6399,228.9965,-1896.9956,-85.5416
35.72,-0.0596,-0.0006,4.8829,-62.6399,229.0941,-1898.2484,-85.5427
35.74,-0.0596,-0.0006,4.8817,-62.6399,229.1918,-1899.5012,-85.5438
35.76,-0.0596,-0.0006,4.8805,-62.6399,229.2894,-1900.7540,-85.5449
35.78,-0.0595,-0.0006,4.8793,-62.6399,229.3870,-1902.0068,-85.5460
35.80,-0.0595,-0.0006,4.8781,-62.6399,229.4845,-1903.2596,-85.5471
35.82,-0.0595,-0.0006,4.8769,-62.6399,229.5821,-1904.5124,-85.5482
35.84,-0.0595,-0.0006,4.8757,-62.6399,229.6796,-1905.7652,-85.5492
35.86,-0.0594,-0.0006,4.8745,-62.6400,229.7771,-1907.0180,-85.5503
35.88,-0.0594,-0.0006,4.8733,-62.6400,229.8745,-1908.2708,-85.5514
35.90,-0.0594,-0.0006,4.8721,-62.6400,229.9720,-1909.5236,-85.5525
35.92,-0.0593,-0.0006,4.8710,-62.6400,230.0694,-1910.7764,-85.5536
35.94,-0.0593,-0.0006,4.8698,-62.6400,230.1668,-1912.0292,-85.5546
35.96,-0.0593,-0.0006,4.8686,-62.6400,230.2642,-1913.2820,-85.5557
35.98,-0.0593,-0.0006,4.8674,-62.6400,230.3615,-1914.5348,-85.5568
36.00,-0.0592,-0.0006,4.8662,-62.6400,230.4588,-1915.7876,-85.5579
36.02,-0.0592,-0.0006,4.8650,-62.6400,230.5561,-1917.0404,-85.5589
36.04,-0.0592,-0.0006,4.8639,-62.6401,230.6534,-1918.2932,-85.5600
36.06,-0.0591,-0.0006,4.8627,-62.6401,230.7507,-1919.5460,-85.5611
36.08,-0.0591,-0.0006,4.8615,-62.6401,230.8479,-1920.7988,-85.5622
36.10,-0.0591,-0.0006,4.8603,-62.6401,230.9451,-1922.0516,-85.5633
36.12,-0.0591,-0.0005,4.8591,-62.6401,231.0423,-1923.3044,-85.5643
36.14,-0.0590,-0.0005,4.8579,-62.6401,231.1395,-1924.5572,-85.5654
36.16,-0.0590,-0.0005,4.8568,-62.6401,231.2366,-1925.8100,-85.5665
36.18,-0.0590,-0.0005,4.8556,-62.6401,231.3337,-1927.0628,-85.5675
36.20,-0.0589,-0.0005,4.8544,-62.6401,231.4308,-1928.3156,-85.5686
36.22,-0.0589,-0.0005,4.8532,-62.6402,231.5279,-1929.5684,-85.5697
36.24,-0.0589,-0.0005,4.8521,-62.6402,231.6249,-1930.8212,-85.5708
36.26,-0.0589,-0.0005,4.8509,-62.6402,231.7219,-1932.0740,-85.5718
36.28,-0.0588,-0.0005,4.8497,-62.6402,231.8189,-1933.3268,-85.5729
36.30,-0.0588,-0.0005,4.8485,-62.6402,231.9159,-1934.5796,-85.5740
36.32,-0.0588,-0.0005,4.8473,-62.6402,232.0128,-1935.8324,-85.5750
36.34,-0.0587,-0.0005,4.8462,-62.6402,232.1097,-1937.0852,-85.5761
36.36,-0.0587,-0.0005,4.8450,-62.6402,232.2066,-1938.3380,-85.5772
36.38,-0.0587,-0.0005,4.8438,-62.6402,232.3035,-1939.5909,-85.5783
36.40,-0.0587,-0.0005,4.8426,-62.6402,232.4004,-1940.8437,-85.5793
36.42,-0.0586,-0.0005,4.8415,-62.6403,232.4972,-1942.0965,-85.5804
36.44,-0.0586,-0.0005,4.8403,-62.6403,232.5940,-1943.3493,-85.5815
36.46,-0.0586,-0.0005,4.8391,-62.6403,232.6908,-1944.6021,-85.5825
36.48,-0.0585,-0.0005,4.8380,-62.6403,232.7876,-1945.8549,-85.5836
36.50,-0.0585,-0.0005,4.8368,-62.6403,232.8843,-1947.1077,-85.5846
36.52,-0.0585,-0.0005,4.8356,-62.6403,232.9810,-1948.3605,-85.5857
36.54,-0.0585,-0.0005,4.8345,-62.6403,233.0777,-1949.6133,-85.5868
36.56,-0.0584,-0.0005,4.8333,-62.6403,233.1744,-1950.8661,-85.5878
36.58,-0.0584,-0.0005,4.8321,-62.6403,233.2710,-1952.1189,-85.5889
36.60,-0.0584,-0.0005,4.8309,-62.6403,233.3676,-1953.3717,-85.5900
36.62,-0.0583,-0.0005,4.8298,-62.6404,233.4642,-1954.6245,-85.5910
36.64,-0.0583,-0.0005,4.8286,-62.6404,233.5608,-1955.8773,-85.5921
