time,accel_x,accel_y,vel_x,vel_y,dis_x,dis_y,ang
0.00,0.0000,-9.8100,10.0000,0.0000,0.0000,30.0000,0.0000
0.02,-0.2500,-9.8100,9.9950,-0.1962,0.1999,29.9961,-1.1246
0.04,-0.2498,-9.8099,9.9900,-0.3924,0.3997,29.9882,-2.2494
0.06,-0.2495,-9.8096,9.9850,-0.5886,0.5994,29.9765,-3.3735
0.08,-0.2493,-9.8091,9.9800,-0.7848,0.7990,29.9608,-4.4962
0.10,-0.2490,-9.8085,9.9750,-0.9809,0.9985,29.9411,-5.6164
0.12,-0.2488,-9.8076,9.9701,-1.1771,1.1979,29.9176,-6.7333
0.14,-0.2485,-9.8065,9.9651,-1.3732,1.3972,29.8901,-7.8461
0.16,-0.2483,-9.8053,9.9601,-1.5693,1.5964,29.8587,-8.9540
0.18,-0.2480,-9.8038,9.9552,-1.7654,1.7955,29.8234,-10.0560
0.20,-0.2478,-9.8022,9.9502,-1.9615,1.9945,29.7842,-11.1515
0.22,-0.2475,-9.8004,9.9453,-2.1575,2.1934,29.7411,-12.2397
0.24,-0.2473,-9.7984,9.9403,-2.3534,2.3922,29.6940,-13.3198
0.26,-0.2470,-9.7962,9.9354,-2.5493,2.5909,29.6430,-14.3912
0.28,-0.2468,-9.7938,9.9305,-2.7452,2.7895,29.5881,-15.4532
0.30,-0.2465,-9.7912,9.9255,-2.9410,2.9881,29.5293,-16.5052
0.32,-0.2463,-9.7884,9.9206,-3.1368,3.1865,29.4665,-17.5465
0.34,-0.2460,-9.7854,9.9157,-3.3325,3.3848,29.3999,-18.5768
0.36,-0.2458,-9.7822,9.9108,-3.5282,3.5830,29.3293,-19.5954
0.38,-0.2456,-9.7789,9.9058,-3.7237,3.7811,29.2549,-20.6019
0.40,-0.2453,-9.7753,9.9009,-3.9193,3.9791,29.1765,-21.5960
0.42,-0.2451,-9.7716,9.8960,-4.1147,4.1771,29.0942,-22.5771
0.44,-0.2448,-9.7677,9.8911,-4.3100,4.3749,29.0080,-23.5450
0.46,-0.2446,-9.7636,9.8863,-4.5053,4.5726,28.9179,-24.4994
0.48,-0.2443,-9.7593,9.8814,-4.7005,4.7702,28.8239,-25.4401
0.50,-0.2441,-9.7548,9.8765,-4.8956,4.9678,28.7259,-26.3668
0.52,-0.2439,-9.7501,9.8716,-5.0906,5.1652,28.6241,-27.2793
0.54,-0.2436,-9.7452,9.8667,-5.2855,5.3625,28.5184,-28.1774
0.56,-0.2434,-9.7402,9.8619,-5.4803,5.5598,28.4088,-29.0612
0.58,-0.2431,-9.7349,9.8570,-5.6750,5.7569,28.2953,-29.9304
0.60,-0.2429,-9.7295,9.8521,-5.8696,5.9539,28.1779,-30.7851
0.62,-0.2427,-9.7239,9.8473,-6.0641,6.1509,28.0566,-31.6252
0.64,-0.2424,-9.7181,9.8424,-6.2584,6.3477,27.9315,-32.4507
0.66,-0.2422,-9.7121,9.8376,-6.4527,6.5445,27.8024,-33.2616
0.68,-0.2419,-9.7059,9.8328,-6.6468,6.7411,27.6695,-34.0581
0.70,-0.2417,-9.6996,9.8279,-6.8408,6.9377,27.5327,-34.8400
0.72,-0.2415,-9.6930,9.8231,-7.0346,7.1342,27.3920,-35.6077
0.74,-0.2412,-9.6863,9.8183,-7.2284,7.3305,27.2474,-36.3611
0.76,-0.2410,-9.6794,9.8135,-7.4219,7.5268,27.0990,-37.1003
0.78,-0.2408,-9.6723,9.8086,-7.6154,7.7230,26.9467,-37.8257
0.80,-0.2405,-9.6650,9.8038,-7.8087,7.9191,26.7905,-38.5371
0.82,-0.2403,-9.6576,9.7990,-8.0018,8.1150,26.6305,-39.2350
0.84,-0.2401,-9.6499,9.7942,-8.1948,8.3109,26.4666,-39.9193
0.86,-0.2398,-9.6421,9.7894,-8.3877,8.5067,26.2988,-40.5903
0.88,-0.2396,-9.6341,9.7846,-8.5804,8.7024,26.1272,-41.2483
0.90,-0.2393,-9.6259,9.7798,-8.7729,8.8980,25.9517,-41.8933
0.92,-0.2391,-9.6176,9.7751,-8.9652,9.0935,25.7724,-42.5256
0.94,-0.2389,-9.6091,9.7703,-9.1574,9.2889,25.5893,-43.1455
0.96,-0.2386,-9.6004,9.7655,-9.3494,9.4842,25.4023,-43.7530
0.98,-0.2384,-9.5915,9.7607,-9.5413,9.6794,25.2115,-44.3485
1.00,-0.2382,-9.5824,9.7560,-9.7329,9.8745,25.0168,-44.9322
1.02,-0.2379,-9.5732,9.7512,-9.9244,10.0696,24.8183,-45.5042
1.04,-0.2377,-9.5638,9.7465,-10.1156,10.2645,24.6160,-46.0648
1.06,-0.2375,-9.5542,9.7417,-10.3067,10.4593,24.4099,-46.6143
1.08,-0.2373,-9.5444,9.7370,-10.4976,10.6541,24.1999,-47.1528
1.10,-0.2370,-9.5345,9.7322,-10.6883,10.8487,23.9862,-47.6806
1.12,-0.2368,-9.5244,9.7275,-10.8788,11.0433,23.7686,-48.1979
1.14,-0.2366,-9.5141,9.7228,-11.0691,11.2377,23.5472,-48.7048
1.16,-0.2363,-9.5037,9.7180,-11.2592,11.4321,23.3220,-49.2018
1.18,-0.2361,-9.4931,9.7133,-11.4490,11.6263,23.0930,-49.6888
1.20,-0.2359,-9.4823,9.7086,-11.6387,11.8205,22.8603,-50.1662
1.22,-0.2356,-9.4714,9.7039,-11.8281,12.0146,22.6237,-50.6342
1.24,-0.2354,-9.4602,9.6992,-12.0173,12.2086,22.3834,-51.0929
1.26,-0.2352,-9.4490,9.6945,-12.2063,12.4025,22.1392,-51.5427
1.28,-0.2350,-9.4375,9.6898,-12.3950,12.5963,21.8913,-51.9836
1.30,-0.2347,-9.4259,9.6851,-12.5835,12.7900,21.6397,-52.4159
1.32,-0.2345,-9.4141,9.6804,-12.7718,12.9836,21.3842,-52.8397
1.34,-0.2343,-9.4022,9.6757,-12.9599,13.1771,21.1250,-53.2554
1.36,-0.2340,-9.3901,9.6710,-13.1477,13.3705,20.8621,-53.6629
1.38,-0.2338,-9.3778,9.6663,-13.3352,13.5638,20.5954,-54.0627
1.40,-0.2336,-9.3654,9.6617,-13.5225,13.7571,20.3249,-54.4547
1.42,-0.2334,-9.3529,9.6570,-13.7096,13.9502,20.0507,-54.8392
1.44,-0.2331,-9.3401,9.6523,-13.8964,14.1433,19.7728,-55.2164
1.46,-0.2329,-9.3272,9.6477,-14.0829,14.3362,19.4911,-55.5864
1.48,-0.2327,-9.3142,9.6430,-14.2692,14.5291,19.2058,-55.9495
1.50,-0.2325,-9.3010,9.6384,-14.4552,14.7218,18.9167,-56.3057
1.52,-0.2322,-9.2876,9.6337,-14.6410,14.9145,18.6238,-56.6552
1.54,-0.2320,-9.2741,9.6291,-14.8265,15.1071,18.3273,-56.9982
1.56,-0.2318,-9.2604,9.6245,-15.0117,15.2996,18.0271,-57.3348
1.58,-0.2316,-9.2466,9.6198,-15.1966,15.4920,17.7231,-57.6652
1.60,-0.2314,-9.2327,9.6152,-15.3813,15.6843,17.4155,-57.9895
1.62,-0.2311,-9.2185,9.6106,-15.5656,15.8765,17.1042,-58.3079
1.64,-0.2309,-9.2043,9.6060,-15.7497,16.0686,16.7892,-58.6204
1.66,-0.2307,-9.1899,9.6013,-15.9335,16.2606,16.4705,-58.9273
1.68,-0.2305,-9.1753,9.5967,-16.1170,16.4526,16.1482,-59.2287
1.70,-0.2302,-9.1606,9.5921,-16.3002,16.6444,15.8222,-59.5246
1.72,-0.2300,-9.1458,9.5875,-16.4832,16.8362,15.4925,-59.8153
1.74,-0.2298,-9.1308,9.5829,-16.6658,17.0278,15.1592,-60.1008
1.76,-0.2296,-9.1156,9.5783,-16.8481,17.2194,14.8223,-60.3812
1.78,-0.2294,-9.1004,9.5738,-17.0301,17.4109,14.4816,-60.6567
1.80,-0.2291,-9.0849,9.5692,-17.2118,17.6023,14.1374,-60.9274
1.82,-0.2289,-9.0694,9.5646,-17.3932,17.7936,13.7896,-61.1934
1.84,-0.2287,-9.0537,9.5600,-17.5743,17.9848,13.4381,-61.4547
1.86,-0.2285,-9.0379,9.5555,-17.7550,18.1759,13.0830,-61.7116
1.88,-0.2283,-9.0219,9.5509,-17.9354,18.3669,12.7243,-61.9640
1.90,-0.2280,-9.0058,9.5463,-18.1156,18.5578,12.3619,-62.2122
1.92,-0.2278,-8.9896,9.5418,-18.2954,18.7486,11.9960,-62.4561
1.94,-0.2276,-8.9732,9.5372,-18.4748,18.9394,11.6265,-62.6959
1.96,-0.2274,-8.9567,9.5327,-18.6540,19.1300,11.2535,-62.9317
1.98,-0.2272,-8.9401,9.5281,-18.8328,19.3206,10.8768,-63.1636
2.00,-0.2270,-8.9233,9.5236,-19.0112,19.5111,10.4966,-63.3916
2.02,-0.2267,-8.9064,9.5191,-19.1893,19.7015,10.1128,-63.6159
2.04,-0.2265,-8.8894,9.5145,-19.3671,19.8917,9.7255,-63.8364
2.06,-0.2263,-8.8723,9.5100,-19.5446,20.0819,9.3346,-64.0534
2.08,-0.2261,-8.8550,9.5055,-19.7217,20.2721,8.9401,-64.2668
2.10,-0.2259,-8.8376,9.5010,-19.8984,20.4621,8.5422,-64.4768
2.12,-0.2257,-8.8201,9.4964,-20.0748,20.6520,8.1407,-64.6834
2.14,-0.2255,-8.8025,9.4919,-20.2509,20.8418,7.7356,-64.8867
2.16,-0.2252,-8.7848,9.4874,-20.4266,21.0316,7.3271,-65.0868
2.18,-0.2250,-8.7669,9.4829,-20.6019,21.2212,6.9151,-65.2837
2.20,-0.2248,-8.7489,9.4784,-20.7769,21.4108,6.4995,-65.4775
2.22,-0.2246,-8.7308,9.4739,-20.9515,21.6003,6.0805,-65.6683
2.24,-0.2244,-8.7126,9.4695,-21.1258,21.7897,5.6580,-65.8561
2.26,-0.2242,-8.6943,9.4650,-21.2997,21.9790,5.2320,-66.0410
2.28,-0.2240,-8.6758,9.4605,-21.4732,22.1682,4.8025,-66.2230
2.30,-0.2238,-8.6573,9.4560,-21.6463,22.3573,4.3696,-66.4023
2.32,-0.2235,-8.6386,9.4515,-21.8191,22.5463,3.9332,-66.5788
2.34,-0.2233,-8.6198,9.4471,-21.9915,22.7353,3.4934,-66.7527
2.36,-0.2231,-8.6009,9.4426,-22.1635,22.9241,3.0501,-66.9239
2.38,-0.2229,-8.5819,9.4382,-22.3351,23.1129,2.6034,-67.0925
2.40,-0.2227,-8.5629,9.4337,-22.5064,23.3016,2.1533,-67.2587
2.42,-0.2225,-8.5437,9.4293,-22.6773,23.4902,1.6998,-67.4224
2.44,-0.2223,-8.5244,9.4248,-22.8478,23.6787,1.2428,-67.5836
2.46,-0.2221,-8.5049,9.4204,-23.0179,23.8671,0.7824,-67.7425
2.48,-0.2219,-8.4854,9.4159,-23.1876,24.0554,0.3187,-67.8991
2.50,-0.2216,-8.4658,9.4115,-23.3569,24.2436,-0.1485,-68.0534
2.52,-0.2214,-8.4461,9.4071,-23.5258,24.4318,-0.6190,-68.2054
2.54,-0.2212,-8.4263,9.4026,-23.6943,24.6198,-1.0929,-68.3553
2.56,-0.2210,-8.4064,9.3982,-23.8625,24.8078,-1.5701,-68.5030
2.58,-0.2208,-8.3865,9.3938,-24.0302,24.9956,-2.0507,-68.6486
2.60,-0.2206,-8.3664,9.3894,-24.1975,25.1834,-2.5347,-68.7922
2.62,-0.2204,-8.3462,9.3850,-24.3644,25.3711,-3.0219,-68.9337
2.64,-0.2202,-8.3259,9.3806,-24.5310,25.5587,-3.5126,-69.0733
2.66,-0.2200,-8.3056,9.3762,-24.6971,25.7463,-4.0065,-69.2109
2.68,-0.2198,-8.2851,9.3718,-24.8628,25.9337,-4.5038,-69.3465
2.70,-0.2196,-8.2646,9.3674,-25.0281,26.1211,-5.0043,-69.4804
2.72,-0.2194,-8.2440,9.3630,-25.1929,26.3083,-5.5082,-69.6123
2.74,-0.2192,-8.2233,9.3586,-25.3574,26.4955,-6.0153,-69.7425
2.76,-0.2190,-8.2025,9.3542,-25.5215,26.6826,-6.5258,-69.8709
2.78,-0.2188,-8.1816,9.3499,-25.6851,26.8696,-7.0395,-69.9975
2.80,-0.2186,-8.1607,9.3455,-25.8483,27.0565,-7.5564,-70.1225
2.82,-0.2183,-8.1397,9.3411,-26.0111,27.2433,-8.0766,-70.2457
2.84,-0.2181,-8.1186,9.3368,-26.1735,27.4300,-8.6001,-70.3673
2.86,-0.2179,-8.0974,9.3324,-26.3354,27.6167,-9.1268,-70.4873
2.88,-0.2177,-8.0761,9.3281,-26.4969,27.8032,-9.6568,-70.6058
2.90,-0.2175,-8.0548,9.3237,-26.6580,27.9897,-10.1899,-70.7226
2.92,-0.2173,-8.0334,9.3194,-26.8187,28.1761,-10.7263,-70.8379
2.94,-0.2171,-8.0119,9.3150,-26.9789,28.3624,-11.2659,-70.9517
2.96,-0.2169,-7.9903,9.3107,-27.1388,28.5486,-11.8087,-71.0641
2.98,-0.2167,-7.9687,9.3063,-27.2981,28.7347,-12.3546,-71.1750
3.00,-0.2165,-7.9470,9.3020,-27.4571,28.9208,-12.9038,-71.2844
3.02,-0.2163,-7.9253,9.2977,-27.6156,29.1067,-13.4561,-71.3925
3.04,-0.2161,-7.9035,9.2934,-27.7736,29.2926,-14.0115,-71.4992
3.06,-0.2159,-7.8816,9.2890,-27.9313,29.4784,-14.5702,-71.6045
3.08,-0.2157,-7.8596,9.2847,-28.0885,29.6641,-15.1319,-71.7085
3.10,-0.2155,-7.8376,9.2804,-28.2452,29.8497,-15.6968,-71.8112
3.12,-0.2153,-7.8155,9.2761,-28.4015,30.0352,-16.2649,-71.9126
3.14,-0.2151,-7.7934,9.2718,-28.5574,30.2207,-16.8360,-72.0128
3.16,-0.2149,-7.7712,9.2675,-28.7128,30.4060,-17.4103,-72.1117
3.18,-0.2147,-7.7489,9.2632,-28.8678,30.5913,-17.9876,-72.2094
3.20,-0.2145,-7.7266,9.2589,-29.0223,30.7764,-18.5681,-72.3059
3.22,-0.2143,-7.7043,9.2546,-29.1764,30.9615,-19.1516,-72.4012
3.24,-0.2141,-7.6818,9.2504,-29.3301,31.1465,-19.7382,-72.4953
3.26,-0.2139,-7.6594,9.2461,-29.4832,31.3315,-20.3279,-72.5883
3.28,-0.2137,-7.6368,9.2418,-29.6360,31.5163,-20.9206,-72.6802
3.30,-0.2135,-7.6143,9.2375,-29.7883,31.7011,-21.5164,-72.7710
3.32,-0.2133,-7.5916,9.2333,-29.9401,31.8857,-22.1152,-72.8607
3.34,-0.2131,-7.5690,9.2290,-30.0915,32.0703,-22.7170,-72.9493
3.36,-0.2129,-7.5463,9.2247,-30.2424,32.2548,-23.3218,-73.0369
3.38,-0.2127,-7.5235,9.2205,-30.3929,32.4392,-23.9297,-73.1234
3.40,-0.2125,-7.5007,9.2162,-30.5429,32.6235,-24.5406,-73.2089
3.42,-0.2123,-7.4778,9.2120,-30.6924,32.8078,-25.1544,-73.2935
3.44,-0.2122,-7.4549,9.2078,-30.8415,32.9919,-25.7712,-73.3770
3.46,-0.2120,-7.4320,9.2035,-30.9902,33.1760,-26.3910,-73.4595
3.48,-0.2118,-7.4090,9.1993,-31.1384,33.3600,-27.0138,-73.5412
3.50,-0.2116,-7.3860,9.1950,-31.2861,33.5439,-27.6395,-73.6218
3.52,-0.2114,-7.3630,9.1908,-31.4333,33.7277,-28.2682,-73.7016
3.54,-0.2112,-7.3399,9.1866,-31.5801,33.9114,-28.8998,-73.7804
3.56,-0.2110,-7.3167,9.1824,-31.7265,34.0951,-29.5343,-73.8583
3.58,-0.2108,-7.2936,9.1782,-31.8723,34.2786,-30.1718,-73.9354
3.60,-0.2106,-7.2704,9.1739,-32.0177,34.4621,-30.8121,-74.0116
3.62,-0.2104,-7.2472,9.1697,-32.1627,34.6455,-31.4554,-74.0869
3.64,-0.2102,-7.2239,9.1655,-32.3072,34.8288,-32.1015,-74.1614
3.66,-0.2100,-7.2006,9.1613,-32.4512,35.0120,-32.7505,-74.2350
3.68,-0.2098,-7.1773,9.1571,-32.5947,35.1952,-33.4024,-74.3079
3.70,-0.2096,-7.1540,9.1529,-32.7378,35.3783,-34.0572,-74.3799
3.72,-0.2094,-7.1306,9.1488,-32.8804,35.5612,-34.7148,-74.4511
3.74,-0.2092,-7.1072,9.1446,-33.0226,35.7441,-35.3753,-74.5216
3.76,-0.2091,-7.0838,9.1404,-33.1642,35.9269,-36.0385,-74.5913
3.78,-0.2089,-7.0603,9.1362,-33.3054,36.1097,-36.7046,-74.6602
3.80,-0.2087,-7.0369,9.1320,-33.4462,36.2923,-37.3736,-74.7284
3.82,-0.2085,-7.0134,9.1279,-33.5864,36.4748,-38.0453,-74.7958
3.84,-0.2083,-6.9899,9.1237,-33.7262,36.6573,-38.7198,-74.8625
3.86,-0.2081,-6.9664,9.1195,-33.8656,36.8397,-39.3971,-74.9285
3.88,-0.2079,-6.9428,9.1154,-34.0044,37.0220,-40.0772,-74.9938
3.90,-0.2077,-6.9192,9.1112,-34.1428,37.2042,-40.7601,-75.0584
3.92,-0.2075,-6.8957,9.1071,-34.2807,37.3864,-41.4457,-75.1223
3.94,-0.2073,-6.8721,9.1029,-34.4182,37.5684,-42.1341,-75.1856
3.96,-0.2072,-6.8485,9.0988,-34.5551,37.7504,-42.8252,-75.2482
3.98,-0.2070,-6.8249,9.0947,-34.6916,37.9323,-43.5190,-75.3101
4.00,-0.2068,-6.8012,9.0905,-34.8277,38.1141,-44.2155,-75.3714
4.02,-0.2066,-6.7776,9.0864,-34.9632,38.2959,-44.9148,-75.4320
4.04,-0.2064,-6.7539,9.0823,-35.0983,38.4775,-45.6168,-75.4920
4.06,-0.2062,-6.7303,9.0781,-35.2329,38.6591,-46.3214,-75.5514
4.08,-0.2060,-6.7066,9.0740,-35.3670,38.8405,-47.0288,-75.6102
4.10,-0.2058,-6.6829,9.0699,-35.5007,39.0219,-47.7388,-75.6684
4.12,-0.2057,-6.6593,9.0658,-35.6339,39.2033,-48.4515,-75.7259
4.14,-0.2055,-6.6356,9.0617,-35.7666,39.3845,-49.1668,-75.7829
4.16,-0.2053,-6.6119,9.0576,-35.8988,39.5656,-49.8848,-75.8394
4.18,-0.2051,-6.5882,9.0535,-36.0306,39.7467,-50.6054,-75.8952
4.20,-0.2049,-6.5645,9.0494,-36.1619,39.9277,-51.3286,-75.9505
4.22,-0.2047,-6.5408,9.0453,-36.2927,40.1086,-52.0545,-76.0052
4.24,-0.2045,-6.5171,9.0412,-36.4230,40.2894,-52.7829,-76.0594
4.26,-0.2044,-6.4934,9.0371,-36.5529,40.4702,-53.5140,-76.1131
4.28,-0.2042,-6.4697,9.0330,-36.6823,40.6508,-54.2476,-76.1662
4.30,-0.2040,-6.4460,9.0289,-36.8112,40.8314,-54.9839,-76.2188
4.32,-0.2038,-6.4223,9.0249,-36.9397,41.0119,-55.7227,-76.2708
4.34,-0.2036,-6.3987,9.0208,-37.0676,41.1923,-56.4640,-76.3224
4.36,-0.2034,-6.3750,9.0167,-37.1951,41.3727,-57.2079,-76.3734
4.38,-0.2033,-6.3513,9.0126,-37.3222,41.5529,-57.9544,-76.4240
4.40,-0.2031,-6.3276,9.0086,-37.4487,41.7331,-58.7033,-76.4740
4.42,-0.2029,-6.3040,9.0045,-37.5748,41.9132,-59.4548,-76.5236
4.44,-0.2027,-6.2803,9.0005,-37.7004,42.0932,-60.2088,-76.5727
4.46,-0.2025,-6.2567,8.9964,-37.8255,42.2731,-60.9654,-76.6213
4.48,-0.2023,-6.2331,8.9924,-37.9502,42.4530,-61.7244,-76.6695
4.50,-0.2022,-6.2095,8.9883,-38.0744,42.6327,-62.4858,-76.7172
4.52,-0.2020,-6.1859,8.9843,-38.1981,42.8124,-63.2498,-76.7644
4.54,-0.2018,-6.1623,8.9803,-38.3213,42.9920,-64.0162,-76.8112
4.56,-0.2016,-6.1387,8.9762,-38.4441,43.1715,-64.7851,-76.8576
4.58,-0.2014,-6.1151,8.9722,-38.5664,43.3510,-65.5564,-76.9035
4.60,-0.2013,-6.0916,8.9682,-38.6883,43.5303,-66.3302,-76.9490
4.62,-0.2011,-6.0680,8.9642,-38.8096,43.7096,-67.1064,-76.9941
4.64,-0.2009,-6.0445,8.9601,-38.9305,43.8888,-67.8850,-77.0387
4.66,-0.2007,-6.0210,8.9561,-39.0509,44.0680,-68.6660,-77.0829
4.68,-0.2005,-5.9976,8.9521,-39.1709,44.2470,-69.4494,-77.1267
4.70,-0.2004,-5.9741,8.9481,-39.2904,44.4260,-70.2353,-77.1701
4.72,-0.2002,-5.9507,8.9441,-39.4094,44.6048,-71.0234,-77.2131
4.74,-0.2000,-5.9273,8.9401,-39.5279,44.7836,-71.8140,-77.2557
4.76,-0.1998,-5.9039,8.9361,-39.6460,44.9624,-72.6069,-77.2980
4.78,-0.1996,-5.8805,8.9321,-39.7636,45.1410,-73.4022,-77.3398
4.80,-0.1995,-5.8571,8.9281,-39.8807,45.3196,-74.1998,-77.3812
4.82,-0.1993,-5.8338,8.9241,-39.9974,45.4980,-74.9998,-77.4223
4.84,-0.1991,-5.8105,8.9202,-40.1136,45.6765,-75.8020,-77.4630
4.86,-0.1989,-5.7872,8.9162,-40.2294,45.8548,-76.6066,-77.5033
4.88,-0.1987,-5.7640,8.9122,-40.3447,46.0330,-77.4135,-77.5433
4.90,-0.1986,-5.7408,8.9082,-40.4595,46.2112,-78.2227,-77.5829
4.92,-0.1984,-5.7176,8.9043,-40.5738,46.3893,-79.0342,-77.6222
4.94,-0.1982,-5.6944,8.9003,-40.6877,46.5673,-79.8479,-77.6611
4.96,-0.1980,-5.6713,8.8963,-40.8011,46.7452,-80.6640,-77.6997
4.98,-0.1979,-5.6482,8.8924,-40.9141,46.9230,-81.4822,-77.7379
5.00,-0.1977,-5.6251,8.8884,-41.0266,47.1008,-82.3028,-77.7758
5.02,-0.1975,-5.6020,8.8845,-41.1386,47.2785,-83.1255,-77.8133
5.04,-0.1973,-5.5790,8.8805,-41.2502,47.4561,-83.9505,-77.8506
5.06,-0.1972,-5.5560,8.8766,-41.3613,47.6336,-84.7778,-77.8874
5.08,-0.1970,-5.5331,8.8726,-41.4720,47.8111,-85.6072,-77.9240
5.10,-0.1968,-5.5102,8.8687,-41.5822,47.9885,-86.4389,-77.9603
5.12,-0.1966,-5.4873,8.8648,-41.6920,48.1658,-87.2727,-77.9962
5.14,-0.1965,-5.4645,8.8608,-41.8012,48.3430,-88.1087,-78.0319
5.16,-0.1963,-5.4416,8.8569,-41.9101,48.5201,-88.9469,-78.0672
5.18,-0.1961,-5.4189,8.8530,-42.0185,48.6972,-89.7873,-78.1022
5.20,-0.1959,-5.3961,8.8491,-42.1264,48.8742,-90.6298,-78.1369
5.22,-0.1958,-5.3734,8.8452,-42.2339,49.0511,-91.4745,-78.1713
5.24,-0.1956,-5.3508,8.8413,-42.3409,49.2279,-92.3213,-78.2055
5.26,-0.1954,-5.3281,8.8373,-42.4474,49.4046,-93.1703,-78.2393
5.28,-0.1952,-5.3055,8.8334,-42.5535,49.5813,-94.0213,-78.2729
5.30,-0.1951,-5.2830,8.8295,-42.6592,49.7579,-94.8745,-78.3061
5.32,-0.1949,-5.2605,8.8256,-42.7644,49.9344,-95.7298,-78.3391
5.34,-0.1947,-5.2380,8.8217,-42.8692,50.1108,-96.5872,-78.3718
5.36,-0.1946,-5.2156,8.8179,-42.9735,50.2872,-97.4467,-78.4043
5.38,-0.1944,-5.1932,8.8140,-43.0773,50.4635,-98.3082,-78.4364
5.40,-0.1942,-5.1709,8.8101,-43.1808,50.6397,-99.1718,-78.4683
5.42,-0.1940,-5.1486,8.8062,-43.2837,50.8158,-100.0375,-78.5000
5.44,-0.1939,-5.1263,8.8023,-43.3863,50.9919,-100.9052,-78.5313
5.46,-0.1937,-5.1041,8.7984,-43.4883,51.1678,-101.7750,-78.5625
5.48,-0.1935,-5.0819,8.7946,-43.5900,51.3437,-102.6468,-78.5933
5.50,-0.1934,-5.0598,8.7907,-43.6912,51.5195,-103.5206,-78.6239
5.52,-0.1932,-5.0377,8.7868,-43.7919,51.6953,-104.3964,-78.6543
5.54,-0.1930,-5.0157,8.7830,-43.8922,51.8709,-105.2743,-78.6844
5.56,-0.1929,-4.9937,8.7791,-43.9921,52.0465,-106.1541,-78.7142
5.58,-0.1927,-4.9717,8.7753,-44.0915,52.2220,-107.0360,-78.7438
5.60,-0.1925,-4.9498,8.7714,-44.1905,52.3974,-107.9198,-78.7732
5.62,-0.1923,-4.9280,8.7676,-44.2891,52.5728,-108.8056,-78.8024
5.64,-0.1922,-4.9062,8.7637,-44.3872,52.7481,-109.6933,-78.8313
5.66,-0.1920,-4.8844,8.7599,-44.4849,52.9233,-110.5830,-78.8599
5.68,-0.1918,-4.8627,8.7561,-44.5822,53.0984,-111.4746,-78.8884
5.70,-0.1917,-4.8411,8.7522,-44.6790,53.2734,-112.3682,-78.9166
5.72,-0.1915,-4.8195,8.7484,-44.7754,53.4484,-113.2637,-78.9446
5.74,-0.1913,-4.7979,8.7446,-44.8713,53.6233,-114.1612,-78.9724
5.76,-0.1912,-4.7764,8.7407,-44.9669,53.7981,-115.0605,-78.9999
5.78,-0.1910,-4.7550,8.7369,-45.0620,53.9728,-115.9617,-79.0272
5.80,-0.1908,-4.7335,8.7331,-45.1566,54.1475,-116.8649,-79.0544
5.82,-0.1907,-4.7122,8.7293,-45.2509,54.3221,-117.7699,-79.0813
5.84,-0.1905,-4.6909,8.7255,-45.3447,54.4966,-118.6768,-79.1080
5.86,-0.1903,-4.6696,8.7217,-45.4381,54.6710,-119.5855,-79.1344
5.88,-0.1902,-4.6484,8.7179,-45.5311,54.8454,-120.4962,-79.1607
5.90,-0.1900,-4.6273,8.7141,-45.6236,55.0197,-121.4086,-79.1868
5.92,-0.1898,-4.6062,8.7103,-45.7157,55.1939,-122.3229,-79.2127
5.94,-0.1897,-4.5852,8.7065,-45.8074,55.3680,-123.2391,-79.2383
5.96,-0.1895,-4.5642,8.7027,-45.8987,55.5421,-124.1571,-79.2638
5.98,-0.1893,-4.5433,8.6989,-45.9896,55.7160,-125.0769,-79.2891
6.00,-0.1892,-4.5224,8.6951,-46.0800,55.8899,-125.9985,-79.3142
6.02,-0.1890,-4.5016,8.6913,-46.1701,56.0638,-126.9219,-79.3390
6.04,-0.1888,-4.4808,8.6876,-46.2597,56.2375,-127.8471,-79.3637
6.06,-0.1887,-4.4601,8.6838,-46.3489,56.4112,-128.7740,-79.3883
6.08,-0.1885,-4.4395,8.6800,-46.4377,56.5848,-129.7028,-79.4126
6.10,-0.1884,-4.4189,8.6763,-46.5261,56.7583,-130.6333,-79.4367
6.12,-0.1882,-4.3983,8.6725,-46.6140,56.9318,-131.5656,-79.4607
6.14,-0.1880,-4.3778,8.6687,-46.7016,57.1052,-132.4996,-79.4845
6.16,-0.1879,-4.3574,8.6650,-46.7887,57.2785,-133.4354,-79.5081
6.18,-0.1877,-4.3370,8.6612,-46.8755,57.4517,-134.3729,-79.5315
6.20,-0.1875,-4.3167,8.6575,-46.9618,57.6248,-135.3121,-79.5547
6.22,-0.1874,-4.2965,8.6537,-47.0477,57.7979,-136.2531,-79.5778
6.24,-0.1872,-4.2763,8.6500,-47.1333,57.9709,-137.1958,-79.6007
6.26,-0.1871,-4.2561,8.6462,-47.2184,58.1438,-138.1401,-79.6234
6.28,-0.1869,-4.2361,8.6425,-47.3031,58.3167,-139.0862,-79.6460
6.30,-0.1867,-4.2160,8.6388,-47.3874,58.4894,-140.0339,-79.6684
6.32,-0.1866,-4.1961,8.6350,-47.4713,58.6622,-140.9834,-79.6906
6.34,-0.1864,-4.1762,8.6313,-47.5549,58.8348,-141.9345,-79.7127
6.36,-0.1862,-4.1563,8.6276,-47.6380,59.0073,-142.8872,-79.7346
6.38,-0.1861,-4.1366,8.6239,-47.7207,59.1798,-143.8416,-79.7563
6.40,-0.1859,-4.1168,8.6201,-47.8031,59.3522,-144.7977,-79.7779
6.42,-0.1858,-4.0972,8.6164,-47.8850,59.5245,-145.7554,-79.7994
6.44,-0.1856,-4.0776,8.6127,-47.9666,59.6968,-146.7147,-79.8206
6.46,-0.1854,-4.0580,8.6090,-48.0477,59.8690,-147.6757,-79.8418
6.48,-0.1853,-4.0385,8.6053,-48.1285,60.0411,-148.6383,-79.8627
6.50,-0.1851,-4.0191,8.6016,-48.2089,60.2131,-149.6024,-79.8835
6.52,-0.1850,-3.9998,8.5979,-48.2889,60.3851,-150.5682,-79.9042
6.54,-0.1848,-3.9805,8.5942,-48.3685,60.5570,-151.5356,-79.9247
6.56,-0.1847,-3.9612,8.5905,-48.4477,60.7288,-152.5045,-79.9451
6.58,-0.1845,-3.9421,8.5868,-48.5265,60.9005,-153.4751,-79.9653
6.60,-0.1843,-3.9229,8.5831,-48.6050,61.0722,-154.4472,-79.9854
6.62,-0.1842,-3.9039,8.5794,-48.6831,61.2437,-155.4208,-80.0054
6.64,-0.1840,-3.8849,8.5758,-48.7608,61.4153,-156.3960,-80.0252
6.66,-0.1839,-3.8660,8.5721,-48.8381,61.5867,-157.3728,-80.0448
6.68,-0.1837,-3.8471,8.5684,-48.9150,61.7581,-158.3511,-80.0643
6.70,-0.1835,-3.8283,8.5647,-48.9916,61.9294,-159.3309,-80.0837
6.72,-0.1834,-3.8096,8.5611,-49.0678,62.1006,-160.3123,-80.1030
6.74,-0.1832,-3.7909,8.5574,-49.1436,62.2717,-161.2952,-80.1221
6.76,-0.1831,-3.7723,8.5537,-49.2191,62.4428,-162.2795,-80.1411
6.78,-0.1829,-3.7537,8.5501,-49.2941,62.6138,-163.2654,-80.1599
6.80,-0.1828,-3.7352,8.5464,-49.3688,62.7847,-164.2528,-80.1786
6.82,-0.1826,-3.7168,8.5428,-49.4432,62.9556,-165.2417,-80.1972
6.84,-0.1824,-3.6984,8.5391,-49.5171,63.1264,-166.2320,-80.2157
6.86,-0.1823,-3.6801,8.5355,-49.5907,63.2971,-167.2238,-80.2340
6.88,-0.1821,-3.6619,8.5318,-49.6640,63.4677,-168.2171,-80.2522
6.90,-0.1820,-3.6437,8.5282,-49.7369,63.6383,-169.2118,-80.2703
6.92,-0.1818,-3.6256,8.5246,-49.8094,63.8088,-170.2080,-80.2883
6.94,-0.1817,-3.6076,8.5209,-49.8815,63.9792,-171.2057,-80.3061
6.96,-0.1815,-3.5896,8.5173,-49.9533,64.1495,-172.2047,-80.3238
6.98,-0.1814,-3.5717,8.5137,-50.0247,64.3198,-173.2052,-80.3414
7.00,-0.1812,-3.5538,8.5101,-50.0958,64.4900,-174.2071,-80.3589
7.02,-0.1811,-3.5360,8.5064,-50.1665,64.6602,-175.2105,-80.3762
7.04,-0.1809,-3.5183,8.5028,-50.2369,64.8302,-176.2152,-80.3935
7.06,-0.1807,-3.5006,8.4992,-50.3069,65.0002,-177.2213,-80.4106
7.08,-0.1806,-3.4830,8.4956,-50.3766,65.1701,-178.2289,-80.4276
7.10,-0.1804,-3.4655,8.4920,-50.4459,65.3399,-179.2378,-80.4445
7.12,-0.1803,-3.4480,8.4884,-50.5148,65.5097,-180.2481,-80.4613
7.14,-0.1801,-3.4306,8.4848,-50.5835,65.6794,-181.2598,-80.4780
7.16,-0.1800,-3.4133,8.4812,-50.6517,65.8490,-182.2728,-80.4945
7.18,-0.1798,-3.3960,8.4776,-50.7196,66.0186,-183.2872,-80.5110
7.20,-0.1797,-3.3788,8.4740,-50.7872,66.1881,-184.3029,-80.5273
7.22,-0.1795,-3.3616,8.4704,-50.8545,66.3575,-185.3200,-80.5435
7.24,-0.1794,-3.3446,8.4668,-50.9213,66.5268,-186.3384,-80.5597
7.26,-0.1792,-3.3275,8.4632,-50.9879,66.6961,-187.3582,-80.5757
7.28,-0.1791,-3.3106,8.4596,-51.0541,66.8653,-188.3793,-80.5916
7.30,-0.1789,-3.2937,8.4561,-51.1200,67.0344,-189.4017,-80.6074
7.32,-0.1788,-3.2769,8.4525,-51.1855,67.2034,-190.4254,-80.6231
7.34,-0.1786,-3.2601,8.4489,-51.2507,67.3724,-191.4504,-80.6387
7.36,-0.1785,-3.2434,8.4453,-51.3156,67.5413,-192.4767,-80.6542
7.38,-0.1783,-3.2268,8.4418,-51.3801,67.7102,-193.5043,-80.6696
7.40,-0.1782,-3.2102,8.4382,-51.4443,67.8789,-194.5332,-80.6849
7.42,-0.1780,-3.1937,8.4347,-51.5082,68.0476,-195.5634,-80.7001
7.44,-0.1779,-3.1773,8.4311,-51.5717,68.2162,-196.5948,-80.7153
7.46,-0.1777,-3.1609,8.4275,-51.6350,68.3848,-197.6275,-80.7303
7.48,-0.1776,-3.1446,8.4240,-51.6979,68.5533,-198.6615,-80.7452
7.50,-0.1774,-3.1283,8.4204,-51.7604,68.7217,-199.6967,-80.7600
7.52,-0.1773,-3.1121,8.4169,-51.8227,68.8900,-200.7331,-80.7747
7.54,-0.1771,-3.0960,8.4134,-51.8846,69.0583,-201.7708,-80.7894
7.56,-0.1770,-3.0800,8.4098,-51.9462,69.2265,-202.8097,-80.8039
7.58,-0.1768,-3.0640,8.4063,-52.0075,69.3946,-203.8499,-80.8183
7.60,-0.1767,-3.0481,8.4027,-52.0684,69.5627,-204.8913,-80.8327
7.62,-0.1765,-3.0322,8.3992,-52.1291,69.7306,-205.9338,-80.8470
7.64,-0.1764,-3.0164,8.3957,-52.1894,69.8986,-206.9776,-80.8611
7.66,-0.1762,-3.0007,8.3922,-52.2494,70.0664,-208.0226,-80.8752
7.68,-0.1761,-2.9850,8.3886,-52.3091,70.2342,-209.0688,-80.8892
7.70,-0.1759,-2.9694,8.3851,-52.3685,70.4019,-210.1162,-80.9031
7.72,-0.1758,-2.9539,8.3816,-52.4276,70.5695,-211.1647,-80.9170
7.74,-0.1756,-2.9384,8.3781,-52.4863,70.7371,-212.2144,-80.9307
7.76,-0.1755,-2.9230,8.3746,-52.5448,70.9046,-213.2653,-80.9444
7.78,-0.1753,-2.9076,8.3711,-52.6030,71.0720,-214.3174,-80.9579
7.80,-0.1752,-2.8923,8.3676,-52.6608,71.2393,-215.3706,-80.9714
7.82,-0.1750,-2.8771,8.3641,-52.7183,71.4066,-216.4250,-80.9848
7.84,-0.1749,-2.8619,8.3606,-52.7756,71.5738,-217.4805,-80.9981
7.86,-0.1747,-2.8468,8.3571,-52.8325,71.7410,-218.5371,-81.0114
7.88,-0.1746,-2.8318,8.3536,-52.8892,71.9080,-219.5949,-81.0245
7.90,-0.1745,-2.8168,8.3501,-52.9455,72.0750,-220.6538,-81.0376
7.92,-0.1743,-2.8019,8.3466,-53.0015,72.2420,-221.7139,-81.0506
7.94,-0.1742,-2.7871,8.3431,-53.0573,72.4088,-222.7750,-81.0635
7.96,-0.1740,-2.7723,8.3397,-53.1127,72.5756,-223.8373,-81.0764
7.98,-0.1739,-2.7576,8.3362,-53.1679,72.7424,-224.9006,-81.0892
8.00,-0.1737,-2.7429,8.3327,-53.2227,72.9090,-225.9651,-81.1018
8.02,-0.1736,-2.7284,8.3292,-53.2773,73.0756,-227.0306,-81.1145
8.04,-0.1734,-2.7138,8.3258,-53.3316,73.2421,-228.0973,-81.1270
8.06,-0.1733,-2.6994,8.3223,-53.3856,73.4085,-229.1650,-81.1395
8.08,-0.1732,-2.6850,8.3188,-53.4393,73.5749,-230.2338,-81.1518
8.10,-0.1730,-2.6706,8.3154,-53.4927,73.7412,-231.3036,-81.1642
8.12,-0.1729,-2.6563,8.3119,-53.5458,73.9075,-232.3745,-81.1764
8.14,-0.1727,-2.6421,8.3085,-53.5986,74.0736,-233.4465,-81.1886
8.16,-0.1726,-2.6280,8.3050,-53.6512,74.2397,-234.5195,-81.2007
8.18,-0.1724,-2.6139,8.3016,-53.7035,74.4058,-235.5936,-81.2127
8.20,-0.1723,-2.5998,8.2981,-53.7555,74.5717,-236.6687,-81.2246
8.22,-0.1721,-2.5859,8.2947,-53.8072,74.7376,-237.7448,-81.2365
8.24,-0.1720,-2.5720,8.2912,-53.8586,74.9035,-238.8220,-81.2483
8.26,-0.1719,-2.5581,8.2878,-53.9098,75.0692,-239.9002,-81.2601
8.28,-0.1717,-2.5443,8.2844,-53.9607,75.2349,-240.9794,-81.2718
8.30,-0.1716,-2.5306,8.2809,-54.0113,75.4005,-242.0597,-81.2834
8.32,-0.1714,-2.5170,8.2775,-54.0616,75.5661,-243.1409,-81.2949
8.34,-0.1713,-2.5033,8.2741,-54.1117,75.7315,-244.2231,-81.3064
8.36,-0.1712,-2.4898,8.2706,-54.1615,75.8970,-245.3064,-81.3178
8.38,-0.1710,-2.4763,8.2672,-54.2110,76.0623,-246.3906,-81.3291
8.40,-0.1709,-2.4629,8.2638,-54.2603,76.2276,-247.4758,-81.3404
8.42,-0.1707,-2.4496,8.2604,-54.3093,76.3928,-248.5620,-81.3516
8.44,-0.1706,-2.4363,8.2570,-54.3580,76.5579,-249.6491,-81.3628
8.46,-0.1704,-2.4230,8.2536,-54.4065,76.7230,-250.7373,-81.3739
8.48,-0.1703,-2.4098,8.2502,-54.4547,76.8880,-251.8263,-81.3849
8.50,-0.1702,-2.3967,8.2468,-54.5026,77.0529,-252.9164,-81.3959
8.52,-0.1700,-2.3837,8.2434,-54.5503,77.2178,-254.0074,-81.4068
8.54,-0.1699,-2.3707,8.2400,-54.5977,77.3826,-255.0994,-81.4176
8.56,-0.1697,-2.3577,8.2366,-54.6448,77.5473,-256.1923,-81.4284
8.58,-0.1696,-2.3449,8.2332,-54.6917,77.7120,-257.2861,-81.4391
8.60,-0.1695,-2.3320,8.2298,-54.7384,77.8766,-258.3809,-81.4497
8.62,-0.1693,-2.3193,8.2264,-54.7848,78.0411,-259.4766,-81.4603
8.64,-0.1692,-2.3066,8.2230,-54.8309,78.2056,-260.5732,-81.4709
8.66,-0.1690,-2.2939,8.2196,-54.8768,78.3700,-261.6707,-81.4814
8.68,-0.1689,-2.2814,8.2163,-54.9224,78.5343,-262.7692,-81.4918
8.70,-0.1688,-2.2688,8.2129,-54.9678,78.6986,-263.8685,-81.5021
8.72,-0.1686,-2.2564,8.2095,-55.0129,78.8627,-264.9688,-81.5124
8.74,-0.1685,-2.2440,8.2061,-55.0578,79.0269,-266.0699,-81.5227
8.76,-0.1684,-2.2316,8.2028,-55.1024,79.1909,-267.1720,-81.5329
8.78,-0.1682,-2.2193,8.1994,-55.1468,79.3549,-268.2749,-81.5430
8.80,-0.1681,-2.2071,8.1961,-55.1909,79.5188,-269.3787,-81.5531
8.82,-0.1679,-2.1949,8.1927,-55.2348,79.6827,-270.4834,-81.5631
8.84,-0.1678,-2.1828,8.1893,-55.2785,79.8465,-271.5890,-81.5731
8.86,-0.1677,-2.1707,8.1860,-55.3219,80.0102,-272.6954,-81.5830
8.88,-0.1675,-2.1587,8.1826,-55.3651,80.1739,-273.8027,-81.5929
8.90,-0.1674,-2.1468,8.1793,-55.4080,80.3374,-274.9109,-81.6027
8.92,-0.1673,-2.1349,8.1759,-55.4507,80.5010,-276.0199,-81.6124
8.94,-0.1671,-2.1230,8.1726,-55.4932,80.6644,-277.1298,-81.6221
8.96,-0.1670,-2.1113,8.1693,-55.5354,80.8278,-278.2405,-81.6318
8.98,-0.1668,-2.0995,8.1659,-55.5774,80.9911,-279.3520,-81.6414
9.00,-0.1667,-2.0879,8.1626,-55.6191,81.1544,-280.4644,-81.6510
9.02,-0.1666,-2.0763,8.1593,-55.6607,81.3175,-281.5776,-81.6604
9.04,-0.1664,-2.0647,8.1559,-55.7020,81.4807,-282.6917,-81.6699
9.06,-0.1663,-2.0532,8.1526,-55.7430,81.6437,-283.8065,-81.6793
9.08,-0.1662,-2.0418,8.1493,-55.7839,81.8067,-284.9222,-81.6886
9.10,-0.1660,-2.0304,8.1460,-55.8245,81.9696,-286.0387,-81.6979
9.12,-0.1659,-2.0191,8.1426,-55.8649,82.1325,-287.1560,-81.7072
9.14,-0.1658,-2.0078,8.1393,-55.9050,82.2953,-288.2741,-81.7164
9.16,-0.1656,-1.9966,8.1360,-55.9449,82.4580,-289.3930,-81.7255
9.18,-0.1655,-1.9854,8.1327,-55.9846,82.6206,-290.5127,-81.7346
9.20,-0.1654,-1.9743,8.1294,-56.0241,82.7832,-291.6332,-81.7437
9.22,-0.1652,-1.9632,8.1261,-56.0634,82.9457,-292.7544,-81.7527
9.24,-0.1651,-1.9522,8.1228,-56.1024,83.1082,-293.8765,-81.7617
9.26,-0.1649,-1.9413,8.1195,-56.1413,83.2706,-294.9993,-81.7706
9.28,-0.1648,-1.9304,8.1162,-56.1799,83.4329,-296.1229,-81.7795
9.30,-0.1647,-1.9196,8.1129,-56.2183,83.5952,-297.2473,-81.7883
9.32,-0.1645,-1.9088,8.1096,-56.2564,83.7574,-298.3724,-81.7971
9.34,-0.1644,-1.8980,8.1063,-56.2944,83.9195,-299.4983,-81.8058
9.36,-0.1643,-1.8873,8.1030,-56.3322,84.0816,-300.6249,-81.8145
9.38,-0.1641,-1.8767,8.0998,-56.3697,84.2435,-301.7523,-81.8231
9.40,-0.1640,-1.8661,8.0965,-56.4070,84.4055,-302.8805,-81.8317
9.42,-0.1639,-1.8556,8.0932,-56.4441,84.5673,-304.0093,-81.8403
9.44,-0.1637,-1.8452,8.0899,-56.4810,84.7291,-305.1390,-81.8488
9.46,-0.1636,-1.8347,8.0866,-56.5177,84.8909,-306.2693,-81.8573
9.48,-0.1635,-1.8244,8.0834,-56.5542,85.0525,-307.4004,-81.8657
9.50,-0.1634,-1.8141,8.0801,-56.5905,85.2141,-308.5322,-81.8741
9.52,-0.1632,-1.8038,8.0768,-56.6266,85.3757,-309.6647,-81.8825
9.54,-0.1631,-1.7936,8.0736,-56.6624,85.5372,-310.7980,-81.8908
9.56,-0.1630,-1.7834,8.0703,-56.6981,85.6986,-311.9319,-81.8990
9.58,-0.1628,-1.7733,8.0671,-56.7336,85.8599,-313.0666,-81.9072
9.60,-0.1627,-1.7633,8.0638,-56.7688,86.0212,-314.2020,-81.9154
9.62,-0.1626,-1.7532,8.0606,-56.8039,86.1824,-315.3381,-81.9236
9.64,-0.1624,-1.7433,8.0573,-56.8388,86.3435,-316.4749,-81.9317
9.66,-0.1623,-1.7334,8.0541,-56.8734,86.5046,-317.6123,-81.9397
9.68,-0.1622,-1.7235,8.0508,-56.9079,86.6656,-318.7505,-81.9477
9.70,-0.1620,-1.7137,8.0476,-56.9422,86.8266,-319.8893,-81.9557
9.72,-0.1619,-1.7040,8.0443,-56.9763,86.9875,-321.0288,-81.9637
9.74,-0.1618,-1.6943,8.0411,-57.0101,87.1483,-322.1690,-81.9716
9.76,-0.1616,-1.6846,8.0379,-57.0438,87.3091,-323.3099,-81.9794
9.78,-0.1615,-1.6750,8.0346,-57.0773,87.4697,-324.4515,-81.9873
9.80,-0.1614,-1.6654,8.0314,-57.1106,87.6304,-325.5937,-81.9950
9.82,-0.1613,-1.6559,8.0282,-57.1438,87.7909,-326.7366,-82.0028
9.84,-0.1611,-1.6465,8.0250,-57.1767,87.9514,-327.8801,-82.0105
9.86,-0.1610,-1.6371,8.0218,-57.2094,88.1119,-329.0243,-82.0182
9.88,-0.1609,-1.6277,8.0185,-57.2420,88.2722,-330.1691,-82.0258
9.90,-0.1607,-1.6184,8.0153,-57.2744,88.4325,-331.3146,-82.0334
9.92,-0.1606,-1.6091,8.0121,-57.3065,88.5928,-332.4607,-82.0410
9.94,-0.1605,-1.5999,8.0089,-57.3385,88.7530,-333.6075,-82.0485
9.96,-0.1604,-1.5907,8.0057,-57.3704,88.9131,-334.7549,-82.0560
9.98,-0.1602,-1.5816,8.0025,-57.4020,89.0731,-335.9030,-82.0635
10.00,-0.1601,-1.5725,7.9993,-57.4334,89.2331,-337.0516,-82.0709
10.02,-0.1600,-1.5635,7.9961,-57.4647,89.3930,-338.2009,-82.0783
10.04,-0.1598,-1.5545,7.9929,-57.4958,89.5529,-339.3508,-82.0856
10.06,-0.1597,-1.5456,7.9897,-57.5267,89.7127,-340.5014,-82.0930
10.08,-0.1596,-1.5367,7.9865,-57.5574,89.8724,-341.6525,-82.1002
10.10,-0.1595,-1.5279,7.9833,-57.5880,90.0321,-342.8043,-82.1075
10.12,-0.1593,-1.5191,7.9801,-57.6184,90.1917,-343.9566,-82.1147
10.14,-0.1592,-1.5103,7.9769,-57.6486,90.3512,-345.1096,-82.1219
10.16,-0.1591,-1.5016,7.9738,-57.6786,90.5107,-346.2632,-82.1291
10.18,-0.1590,-1.4929,7.9706,-57.7085,90.6701,-347.4174,-82.1362
10.20,-0.1588,-1.4843,7.9674,-57.7382,90.8295,-348.5721,-82.1433
10.22,-0.1587,-1.4758,7.9642,-57.7677,90.9887,-349.7275,-82.1503
10.24,-0.1586,-1.4672,7.9611,-57.7970,91.1480,-350.8834,-82.1573
10.26,-0.1584,-1.4588,7.9579,-57.8262,91.3071,-352.0399,-82.1643
10.28,-0.1583,-1.4503,7.9547,-57.8552,91.4662,-353.1970,-82.1713
10.30,-0.1582,-1.4419,7.9516,-57.8840,91.6253,-354.3547,-82.1782
10.32,-0.1581,-1.4336,7.9484,-57.9127,91.7842,-355.5130,-82.1851
10.34,-0.1579,-1.4253,7.9452,-57.9412,91.9431,-356.6718,-82.1920
10.36,-0.1578,-1.4170,7.9421,-57.9696,92.1020,-357.8312,-82.1988
10.38,-0.1577,-1.4088,7.9389,-57.9977,92.2607,-358.9912,-82.2056
10.40,-0.1576,-1.4007,7.9358,-58.0258,92.4195,-360.1517,-82.2124
10.42,-0.1574,-1.3925,7.9326,-58.0536,92.5781,-361.3127,-82.2191
10.44,-0.1573,-1.3844,7.9295,-58.0813,92.7367,-362.4744,-82.2258
10.46,-0.1572,-1.3764,7.9263,-58.1088,92.8952,-363.6365,-82.2325
10.48,-0.1571,-1.3684,7.9232,-58.1362,93.0537,-364.7993,-82.2392
10.50,-0.1569,-1.3605,7.9201,-58.1634,93.2121,-365.9625,-82.2458
10.52,-0.1568,-1.3525,7.9169,-58.1904,93.3704,-367.1263,-82.2524
10.54,-0.1567,-1.3447,7.9138,-58.2173,93.5287,-368.2907,-82.2589
10.56,-0.1566,-1.3369,7.9107,-58.2441,93.6869,-369.4556,-82.2655
10.58,-0.1564,-1.3291,7.9075,-58.2707,93.8451,-370.6210,-82.2720
10.60,-0.1563,-1.3213,7.9044,-58.2971,94.0032,-371.7869,-82.2785
10.62,-0.1562,-1.3136,7.9013,-58.3234,94.1612,-372.9534,-82.2849
10.64,-0.1561,-1.3060,7.8982,-58.3495,94.3192,-374.1204,-82.2913
10.66,-0.1560,-1.2983,7.8950,-58.3754,94.4771,-375.2879,-82.2977
10.68,-0.1558,-1.2908,7.8919,-58.4013,94.6349,-376.4559,-82.3041
10.70,-0.1557,-1.2832,7.8888,-58.4269,94.7927,-377.6245,-82.3104
10.72,-0.1556,-1.2757,7.8857,-58.4524,94.9504,-378.7935,-82.3167
10.74,-0.1555,-1.2683,7.8826,-58.4778,95.1080,-379.9631,-82.3230
10.76,-0.1553,-1.2609,7.8795,-58.5030,95.2656,-381.1331,-82.3293
10.78,-0.1552,-1.2535,7.8764,-58.5281,95.4231,-382.3037,-82.3355
10.80,-0.1551,-1.2462,7.8733,-58.5530,95.5806,-383.4747,-82.3417
10.82,-0.1550,-1.2389,7.8702,-58.5778,95.7380,-384.6463,-82.3479
10.84,-0.1548,-1.2316,7.8671,-58.6024,95.8954,-385.8183,-82.3540
10.86,-0.1547,-1.2244,7.8640,-58.6269,96.0526,-386.9909,-82.3602
10.88,-0.1546,-1.2172,7.8609,-58.6513,96.2099,-388.1639,-82.3663
10.90,-0.1545,-1.2101,7.8578,-58.6755,96.3670,-389.3374,-82.3723
10.92,-0.1544,-1.2030,7.8547,-58.6995,96.5241,-390.5114,-82.3784
10.94,-0.1542,-1.1959,7.8516,-58.7234,96.6811,-391.6859,-82.3844
10.96,-0.1541,-1.1889,7.8485,-58.7472,96.8381,-392.8608,-82.3904
10.98,-0.1540,-1.1819,7.8455,-58.7709,96.9950,-394.0362,-82.3964
11.00,-0.1539,-1.1750,7.8424,-58.7944,97.1519,-395.2121,-82.4023
11.02,-0.1538,-1.1681,7.8393,-58.8177,97.3087,-396.3885,-82.4083
11.04,-0.1536,-1.1612,7.8362,-58.8409,97.4654,-397.5653,-82.4142
11.06,-0.1535,-1.1544,7.8332,-58.8640,97.6220,-398.7426,-82.4201
11.08,-0.1534,-1.1476,7.8301,-58.8870,97.7786,-399.9203,-82.4259
11.10,-0.1533,-1.1408,7.8270,-58.9098,97.9352,-401.0985,-82.4317
11.12,-0.1532,-1.1341,7.8240,-58.9325,98.0917,-402.2772,-82.4375
11.14,-0.1530,-1.1274,7.8209,-58.9550,98.2481,-403.4563,-82.4433
11.16,-0.1529,-1.1208,7.8179,-58.9774,98.4044,-404.6358,-82.4491
11.18,-0.1528,-1.1142,7.8148,-58.9997,98.5607,-405.8158,-82.4548
11.20,-0.1527,-1.1076,7.8117,-59.0219,98.7170,-406.9962,-82.4605
11.22,-0.1526,-1.1010,7.8087,-59.0439,98.8731,-408.1771,-82.4662
11.24,-0.1524,-1.0945,7.8056,-59.0658,99.0293,-409.3584,-82.4719
11.26,-0.1523,-1.0881,7.8026,-59.0875,99.1853,-410.5402,-82.4775
11.28,-0.1522,-1.0817,7.7996,-59.1092,99.3413,-411.7224,-82.4832
11.30,-0.1521,-1.0753,7.7965,-59.1307,99.4972,-412.9050,-82.4887
11.32,-0.1520,-1.0689,7.7935,-59.1521,99.6531,-414.0880,-82.4943
11.34,-0.1518,-1.0626,7.7904,-59.1733,99.8089,-415.2715,-82.4999
11.36,-0.1517,-1.0563,7.7874,-59.1944,99.9647,-416.4554,-82.5054
11.38,-0.1516,-1.0500,7.7844,-59.2154,100.1203,-417.6397,-82.5109
11.40,-0.1515,-1.0438,7.7813,-59.2363,100.2760,-418.8244,-82.5164
11.42,-0.1514,-1.0376,7.7783,-59.2571,100.4315,-420.0096,-82.5219
11.44,-0.1513,-1.0315,7.7753,-59.2777,100.5870,-421.1951,-82.5273
11.46,-0.1511,-1.0254,7.7723,-59.2982,100.7425,-422.3811,-82.5328
11.48,-0.1510,-1.0193,7.7692,-59.3186,100.8979,-423.5674,-82.5382
11.50,-0.1509,-1.0133,7.7662,-59.3389,101.0532,-424.7542,-82.5436
11.52,-0.1508,-1.0072,7.7632,-59.3590,101.2085,-425.9414,-82.5489
11.54,-0.1507,-1.0013,7.7602,-59.3790,101.3637,-427.1290,-82.5543
11.56,-0.1506,-0.9953,7.7572,-59.3989,101.5188,-428.3170,-82.5596
11.58,-0.1504,-0.9894,7.7542,-59.4187,101.6739,-429.5053,-82.5649
11.60,-0.1503,-0.9835,7.7512,-59.4384,101.8289,-430.6941,-82.5702
11.62,-0.1502,-0.9777,7.7482,-59.4579,101.9839,-431.8833,-82.5754
11.64,-0.1501,-0.9719,7.7452,-59.4774,102.1388,-433.0728,-82.5807
11.66,-0.1500,-0.9661,7.7422,-59.4967,102.2936,-434.2627,-82.5859
11.68,-0.1499,-0.9604,7.7392,-59.5159,102.4484,-435.4531,-82.5911
11.70,-0.1497,-0.9546,7.7362,-59.5350,102.6031,-436.6438,-82.5963
11.72,-0.1496,-0.9490,7.7332,-59.5540,102.7578,-437.8348,-82.6014
11.74,-0.1495,-0.9433,7.7302,-59.5729,102.9124,-439.0263,-82.6066
11.76,-0.1494,-0.9377,7.7272,-59.5916,103.0669,-440.2181,-82.6117
11.78,-0.1493,-0.9321,7.7242,-59.6102,103.2214,-441.4103,-82.6168
11.80,-0.1492,-0.9265,7.7212,-59.6288,103.3759,-442.6029,-82.6219
11.82,-0.1490,-0.9210,7.7183,-59.6472,103.5302,-443.7959,-82.6270
11.84,-0.1489,-0.9155,7.7153,-59.6655,103.6845,-444.9892,-82.6320
11.86,-0.1488,-0.9101,7.7123,-59.6837,103.8388,-446.1828,-82.6371
11.88,-0.1487,-0.9046,7.7093,-59.7018,103.9930,-447.3769,-82.6421
11.90,-0.1486,-0.8992,7.7064,-59.7198,104.1471,-448.5713,-82.6471
11.92,-0.1485,-0.8939,7.7034,-59.7377,104.3012,-449.7660,-82.6521
11.94,-0.1484,-0.8885,7.7004,-59.7554,104.4552,-450.9611,-82.6570
11.96,-0.1482,-0.8832,7.6975,-59.7731,104.6091,-452.1566,-82.6620
11.98,-0.1481,-0.8779,7.6945,-59.7907,104.7630,-453.3524,-82.6669
12.00,-0.1480,-0.8727,7.6915,-59.8081,104.9168,-454.5486,-82.6718
12.02,-0.1479,-0.8675,7.6886,-59.8255,105.0706,-455.7451,-82.6767
12.04,-0.1478,-0.8623,7.6856,-59.8427,105.2243,-456.9419,-82.6815
12.06,-0.1477,-0.8571,7.6827,-59.8599,105.3780,-458.1391,-82.6864
12.08,-0.1476,-0.8520,7.6797,-59.8769,105.5316,-459.3367,-82.6912
12.10,-0.1474,-0.8469,7.6768,-59.8938,105.6851,-460.5346,-82.6961
12.12,-0.1473,-0.8418,7.6738,-59.9107,105.8386,-461.7328,-82.7009
12.14,-0.1472,-0.8368,7.6709,-59.9274,105.9920,-462.9313,-82.7056
12.16,-0.1471,-0.8318,7.6679,-59.9440,106.1454,-464.1302,-82.7104
12.18,-0.1470,-0.8268,7.6650,-59.9606,106.2986,-465.3294,-82.7152
12.20,-0.1469,-0.8218,7.6621,-59.9770,106.4519,-466.5289,-82.7199
12.22,-0.1468,-0.8169,7.6591,-59.9933,106.6051,-467.7288,-82.7246
12.24,-0.1467,-0.8120,7.6562,-60.0096,106.7582,-468.9290,-82.7293
12.26,-0.1465,-0.8071,7.6533,-60.0257,106.9113,-470.1295,-82.7340
12.28,-0.1464,-0.8023,7.6503,-60.0418,107.0643,-471.3304,-82.7387
12.30,-0.1463,-0.7975,7.6474,-60.0577,107.2172,-472.5315,-82.7433
12.32,-0.1462,-0.7927,7.6445,-60.0736,107.3701,-473.7330,-82.7480
12.34,-0.1461,-0.7879,7.6416,-60.0893,107.5229,-474.9348,-82.7526
12.36,-0.1460,-0.7832,7.6386,-60.1050,107.6757,-476.1369,-82.7572
12.38,-0.1459,-0.7785,7.6357,-60.1206,107.8284,-477.3393,-82.7618
12.40,-0.1458,-0.7738,7.6328,-60.1360,107.9811,-478.5420,-82.7664
12.42,-0.1456,-0.7691,7.6299,-60.1514,108.1337,-479.7450,-82.7709
12.44,-0.1455,-0.7645,7.6270,-60.1667,108.2862,-480.9484,-82.7755
12.46,-0.1454,-0.7599,7.6241,-60.1819,108.4387,-482.1520,-82.7800
12.48,-0.1453,-0.7553,7.6212,-60.1970,108.5911,-483.3559,-82.7845
12.50,-0.1452,-0.7508,7.6183,-60.2120,108.7435,-484.5602,-82.7890
12.52,-0.1451,-0.7463,7.6154,-60.2270,108.8958,-485.7647,-82.7935
12.54,-0.1450,-0.7418,7.6125,-60.2418,109.0480,-486.9696,-82.7980
12.56,-0.1449,-0.7373,7.6096,-60.2565,109.2002,-488.1747,-82.8024
12.58,-0.1448,-0.7329,7.6067,-60.2712,109.3524,-489.3801,-82.8069
12.60,-0.1447,-0.7285,7.6038,-60.2858,109.5044,-490.5858,-82.8113
12.62,-0.1445,-0.7241,7.6009,-60.3003,109.6565,-491.7918,-82.8157
12.64,-0.1444,-0.7197,7.5980,-60.3146,109.8084,-492.9981,-82.8201
12.66,-0.1443,-0.7154,7.5951,-60.3290,109.9603,-494.2047,-82.8245
12.68,-0.1442,-0.7110,7.5922,-60.3432,110.1122,-495.4116,-82.8289
12.70,-0.1441,-0.7068,7.5893,-60.3573,110.2640,-496.6187,-82.8332
12.72,-0.1440,-0.7025,7.5865,-60.3714,110.4157,-497.8261,-82.8376
12.74,-0.1439,-0.6982,7.5836,-60.3853,110.5674,-499.0338,-82.8419
12.76,-0.1438,-0.6940,7.5807,-60.3992,110.7190,-500.2418,-82.8462
12.78,-0.1437,-0.6898,7.5778,-60.4130,110.8705,-501.4501,-82.8505
12.80,-0.1436,-0.6857,7.5750,-60.4267,111.0220,-502.6586,-82.8548
12.82,-0.1435,-0.6815,7.5721,-60.4403,111.1735,-503.8674,-82.8591
12.84,-0.1433,-0.6774,7.5692,-60.4539,111.3249,-505.0765,-82.8633
12.86,-0.1432,-0.6733,7.5664,-60.4674,111.4762,-506.2859,-82.8676
12.88,-0.1431,-0.6692,7.5635,-60.4807,111.6274,-507.4955,-82.8718
12.90,-0.1430,-0.6652,7.5606,-60.4941,111.7787,-508.7054,-82.8760
12.92,-0.1429,-0.6612,7.5578,-60.5073,111.9298,-509.9155,-82.8802
12.94,-0.1428,-0.6572,7.5549,-60.5204,112.0809,-511.1259,-82.8844
12.96,-0.1427,-0.6532,7.5521,-60.5335,112.2320,-512.3366,-82.8886
12.98,-0.1426,-0.6492,7.5492,-60.5465,112.3829,-513.5475,-82.8928
13.00,-0.1425,-0.6453,7.5464,-60.5594,112.5339,-514.7587,-82.8969
13.02,-0.1424,-0.6414,7.5435,-60.5722,112.6847,-515.9701,-82.9011
13.04,-0.1423,-0.6375,7.5407,-60.5850,112.8356,-517.1818,-82.9052
13.06,-0.1422,-0.6337,7.5378,-60.5976,112.9863,-518.3938,-82.9093
13.08,-0.1420,-0.6298,7.5350,-60.6102,113.1370,-519.6060,-82.9134
13.10,-0.1419,-0.6260,7.5322,-60.6227,113.2877,-520.8185,-82.9175
13.12,-0.1418,-0.6222,7.5293,-60.6352,113.4382,-522.0312,-82.9216
13.14,-0.1417,-0.6184,7.5265,-60.6476,113.5888,-523.2441,-82.9257
13.16,-0.1416,-0.6147,7.5236,-60.6598,113.7392,-524.4573,-82.9297
13.18,-0.1415,-0.6110,7.5208,-60.6721,113.8897,-525.6707,-82.9337
13.20,-0.1414,-0.6073,7.5180,-60.6842,114.0400,-526.8844,-82.9378
13.22,-0.1413,-0.6036,7.5152,-60.6963,114.1903,-528.0984,-82.9418
13.24,-0.1412,-0.5999,7.5123,-60.7083,114.3406,-529.3125,-82.9458
13.26,-0.1411,-0.5963,7.5095,-60.7202,114.4908,-530.5269,-82.9498
13.28,-0.1410,-0.5926,7.5067,-60.7321,114.6409,-531.7416,-82.9538
13.30,-0.1409,-0.5890,7.5039,-60.7438,114.7910,-532.9564,-82.9577
13.32,-0.1408,-0.5855,7.5011,-60.7555,114.9410,-534.1716,-82.9617
13.34,-0.1407,-0.5819,7.4983,-60.7672,115.0910,-535.3869,-82.9657
13.36,-0.1406,-0.5784,7.4954,-60.7788,115.2409,-536.6025,-82.9696
13.38,-0.1405,-0.5749,7.4926,-60.7903,115.3907,-537.8183,-82.9735
13.40,-0.1403,-0.5714,7.4898,-60.8017,115.5405,-539.0343,-82.9774
13.42,-0.1402,-0.5679,7.4870,-60.8130,115.6903,-540.2506,-82.9813
13.44,-0.1401,-0.5644,7.4842,-60.8243,115.8399,-541.4671,-82.9852
13.46,-0.1400,-0.5610,7.4814,-60.8355,115.9896,-542.6838,-82.9891
13.48,-0.1399,-0.5576,7.4786,-60.8467,116.1391,-543.9007,-82.9930
13.50,-0.1398,-0.5542,7.4758,-60.8578,116.2887,-545.1179,-82.9968
13.52,-0.1397,-0.5508,7.4730,-60.8688,116.4381,-546.3352,-83.0007
13.54,-0.1396,-0.5475,7.4702,-60.8797,116.5875,-547.5528,-83.0045
13.56,-0.1395,-0.5441,7.4674,-60.8906,116.7369,-548.7706,-83.0083
13.58,-0.1394,-0.5408,7.4647,-60.9014,116.8862,-549.9887,-83.0121
13.60,-0.1393,-0.5375,7.4619,-60.9122,117.0354,-551.2069,-83.0159
13.62,-0.1392,-0.5343,7.4591,-60.9229,117.1846,-552.4254,-83.0197
13.64,-0.1391,-0.5310,7.4563,-60.9335,117.3337,-553.6440,-83.0235
13.66,-0.1390,-0.5278,7.4535,-60.9441,117.4828,-554.8629,-83.0273
13.68,-0.1389,-0.5246,7.4507,-60.9545,117.6318,-556.0820,-83.0311
13.70,-0.1388,-0.5214,7.4480,-60.9650,117.7808,-557.3013,-83.0348
13.72,-0.1387,-0.5182,7.4452,-60.9753,117.9297,-558.5208,-83.0385
13.74,-0.1386,-0.5150,7.4424,-60.9856,118.0785,-559.7405,-83.0423
13.76,-0.1385,-0.5119,7.4397,-60.9959,118.2273,-560.9605,-83.0460
13.78,-0.1384,-0.5088,7.4369,-61.0061,118.3760,-562.1806,-83.0497
13.80,-0.1383,-0.5057,7.4341,-61.0162,118.5247,-563.4009,-83.0534
13.82,-0.1382,-0.5026,7.4314,-61.0262,118.6733,-564.6214,-83.0571
13.84,-0.1381,-0.4995,7.4286,-61.0362,118.8219,-565.8421,-83.0608
13.86,-0.1380,-0.4965,7.4258,-61.0461,118.9704,-567.0631,-83.0644
13.88,-0.1379,-0.4934,7.4231,-61.0560,119.1189,-568.2842,-83.0681
13.90,-0.1378,-0.4904,7.4203,-61.0658,119.2673,-569.5055,-83.0717
13.92,-0.1377,-0.4874,7.4176,-61.0756,119.4157,-570.7270,-83.0754
13.94,-0.1376,-0.4844,7.4148,-61.0853,119.5640,-571.9487,-83.0790
13.96,-0.1374,-0.4815,7.4121,-61.0949,119.7122,-573.1706,-83.0826
13.98,-0.1373,-0.4785,7.4093,-61.1045,119.8604,-574.3927,-83.0863
14.00,-0.1372,-0.4756,7.4066,-61.1140,120.0085,-575.6150,-83.0899
14.02,-0.1371,-0.4727,7.4038,-61.1234,120.1566,-576.8375,-83.0934
14.04,-0.1370,-0.4698,7.4011,-61.1328,120.3046,-578.0601,-83.0970
14.06,-0.1369,-0.4669,7.3984,-61.1422,120.4526,-579.2830,-83.1006
14.08,-0.1368,-0.4641,7.3956,-61.1514,120.6005,-580.5060,-83.1042
14.10,-0.1367,-0.4613,7.3929,-61.1607,120.7483,-581.7292,-83.1077
14.12,-0.1366,-0.4584,7.3902,-61.1698,120.8961,-582.9526,-83.1113
14.14,-0.1365,-0.4556,7.3874,-61.1789,121.0439,-584.1762,-83.1148
14.16,-0.1364,-0.4528,7.3847,-61.1880,121.1916,-585.3999,-83.1183
14.18,-0.1363,-0.4501,7.3820,-61.1970,121.3392,-586.6239,-83.1219
14.20,-0.1362,-0.4473,7.3792,-61.2059,121.4868,-587.8480,-83.1254
14.22,-0.1361,-0.4446,7.3765,-61.2148,121.6343,-589.0723,-83.1289
14.24,-0.1360,-0.4419,7.3738,-61.2237,121.7818,-590.2968,-83.1324
14.26,-0.1359,-0.4392,7.3711,-61.2325,121.9292,-591.5214,-83.1358
14.28,-0.1358,-0.4365,7.3684,-61.2412,122.0766,-592.7462,-83.1393
14.30,-0.1357,-0.4338,7.3657,-61.2499,122.2239,-593.9712,-83.1428
14.32,-0.1356,-0.4311,7.3629,-61.2585,122.3712,-595.1964,-83.1462
14.34,-0.1355,-0.4285,7.3602,-61.2671,122.5184,-596.4217,-83.1497
14.36,-0.1354,-0.4259,7.3575,-61.2756,122.6655,-597.6473,-83.1531
14.38,-0.1353,-0.4233,7.3548,-61.2840,122.8126,-598.8729,-83.1566
14.40,-0.1352,-0.4207,7.3521,-61.2925,122.9597,-600.0988,-83.1600
14.42,-0.1351,-0.4181,7.3494,-61.3008,123.1067,-601.3248,-83.1634
14.44,-0.1350,-0.4155,7.3467,-61.3091,123.2536,-602.5510,-83.1668
14.46,-0.1349,-0.4130,7.3440,-61.3174,123.4005,-603.7773,-83.1702
14.48,-0.1348,-0.4104,7.3413,-61.3256,123.5473,-605.0038,-83.1736
14.50,-0.1347,-0.4079,7.3386,-61.3338,123.6941,-606.2305,-83.1770
14.52,-0.1346,-0.4054,7.3359,-61.3419,123.8408,-607.4574,-83.1803
14.54,-0.1345,-0.4029,7.3332,-61.3499,123.9875,-608.6843,-83.1837
14.56,-0.1344,-0.4005,7.3305,-61.3579,124.1341,-609.9115,-83.1871
14.58,-0.1343,-0.3980,7.3279,-61.3659,124.2806,-611.1388,-83.1904
14.60,-0.1342,-0.3956,7.3252,-61.3738,124.4271,-612.3663,-83.1938
14.62,-0.1341,-0.3931,7.3225,-61.3817,124.5736,-613.5939,-83.1971
14.64,-0.1340,-0.3907,7.3198,-61.3895,124.7200,-614.8217,-83.2004
14.66,-0.1339,-0.3883,7.3171,-61.3972,124.8663,-616.0497,-83.2037
14.68,-0.1339,-0.3859,7.3145,-61.4050,125.0126,-617.2778,-83.2070
14.70,-0.1338,-0.3836,7.3118,-61.4126,125.1588,-618.5060,-83.2103
14.72,-0.1337,-0.3812,7.3091,-61.4203,125.3050,-619.7344,-83.2136
14.74,-0.1336,-0.3789,7.3064,-61.4278,125.4512,-620.9630,-83.2169
14.76,-0.1335,-0.3766,7.3038,-61.4354,125.5972,-622.1917,-83.2202
14.78,-0.1334,-0.3742,7.3011,-61.4429,125.7433,-623.4205,-83.2235
14.80,-0.1333,-0.3719,7.2984,-61.4503,125.8892,-624.6496,-83.2267
14.82,-0.1332,-0.3697,7.2958,-61.4577,126.0351,-625.8787,-83.2300
14.84,-0.1331,-0.3674,7.2931,-61.4650,126.1810,-627.1080,-83.2332
14.86,-0.1330,-0.3651,7.2904,-61.4723,126.3268,-628.3375,-83.2365
14.88,-0.1329,-0.3629,7.2878,-61.4796,126.4726,-629.5670,-83.2397
14.90,-0.1328,-0.3606,7.2851,-61.4868,126.6183,-630.7968,-83.2429
14.92,-0.1327,-0.3584,7.2825,-61.4940,126.7639,-632.0267,-83.2462
14.94,-0.1326,-0.3562,7.2798,-61.5011,126.9095,-633.2567,-83.2494
14.96,-0.1325,-0.3540,7.2772,-61.5082,127.0551,-634.4868,-83.2526
14.98,-0.1324,-0.3519,7.2745,-61.5152,127.2005,-635.7172,-83.2558
15.00,-0.1323,-0.3497,7.2719,-61.5222,127.3460,-636.9476,-83.2590
15.02,-0.1322,-0.3475,7.2692,-61.5292,127.4914,-638.1782,-83.2621
15.04,-0.1321,-0.3454,7.2666,-61.5361,127.6367,-639.4089,-83.2653
15.06,-0.1320,-0.3433,7.2640,-61.5429,127.7820,-640.6398,-83.2685
15.08,-0.1319,-0.3412,7.2613,-61.5498,127.9272,-641.8708,-83.2716
15.10,-0.1318,-0.3391,7.2587,-61.5565,128.0724,-643.1019,-83.2748
15.12,-0.1317,-0.3370,7.2560,-61.5633,128.2175,-644.3332,-83.2779
15.14,-0.1316,-0.3349,7.2534,-61.5700,128.3626,-645.5646,-83.2811
15.16,-0.1315,-0.3328,7.2508,-61.5766,128.5076,-646.7961,-83.2842
15.18,-0.1314,-0.3308,7.2482,-61.5832,128.6526,-648.0277,-83.2873
15.20,-0.1313,-0.3288,7.2455,-61.5898,128.7975,-649.2595,-83.2905
15.22,-0.1312,-0.3267,7.2429,-61.5964,128.9423,-650.4915,-83.2936
15.24,-0.1311,-0.3247,7.2403,-61.6029,129.0871,-651.7235,-83.2967
15.26,-0.1311,-0.3227,7.2377,-61.6093,129.2319,-652.9557,-83.2998
15.28,-0.1310,-0.3207,7.2350,-61.6157,129.3766,-654.1880,-83.3029
15.30,-0.1309,-0.3188,7.2324,-61.6221,129.5212,-655.4205,-83.3060
15.32,-0.1308,-0.3168,7.2298,-61.6284,129.6658,-656.6530,-83.3090
15.34,-0.1307,-0.3148,7.2272,-61.6347,129.8104,-657.8857,-83.3121
15.36,-0.1306,-0.3129,7.2246,-61.6410,129.9549,-659.1186,-83.3152
15.38,-0.1305,-0.3110,7.2220,-61.6472,130.0993,-660.3515,-83.3183
15.40,-0.1304,-0.3091,7.2194,-61.6534,130.2437,-661.5846,-83.3213
15.42,-0.1303,-0.3071,7.2168,-61.6595,130.3880,-662.8178,-83.3244
15.44,-0.1302,-0.3053,7.2142,-61.6656,130.5323,-664.0511,-83.3274
15.46,-0.1301,-0.3034,7.2116,-61.6717,130.6765,-665.2845,-83.3304
15.48,-0.1300,-0.3015,7.2090,-61.6777,130.8207,-666.5181,-83.3335
15.50,-0.1299,-0.2996,7.2064,-61.6837,130.9648,-667.7517,-83.3365
15.52,-0.1298,-0.2978,7.2038,-61.6897,131.1089,-668.9855,-83.3395
15.54,-0.1297,-0.2960,7.2012,-61.6956,131.2529,-670.2194,-83.3425
15.56,-0.1296,-0.2941,7.1986,-61.7015,131.3969,-671.4535,-83.3455
15.58,-0.1295,-0.2923,7.1960,-61.7073,131.5408,-672.6876,-83.3485
15.60,-0.1295,-0.2905,7.1934,-61.7131,131.6847,-673.9219,-83.3515
15.62,-0.1294,-0.2887,7.1908,-61.7189,131.8285,-675.1563,-83.3545
15.64,-0.1293,-0.2869,7.1882,-61.7247,131.9723,-676.3907,-83.3575
15.66,-0.1292,-0.2852,7.1856,-61.7304,132.1160,-677.6254,-83.3604
15.68,-0.1291,-0.2834,7.1831,-61.7360,132.2597,-678.8601,-83.3634
15.70,-0.1290,-0.2817,7.1805,-61.7417,132.4033,-680.0949,-83.3664
15.72,-0.1289,-0.2799,7.1779,-61.7473,132.5468,-681.3299,-83.3693
15.74,-0.1288,-0.2782,7.1753,-61.7528,132.6903,-682.5649,-83.3723
15.76,-0.1287,-0.2765,7.1727,-61.7584,132.8338,-683.8001,-83.3752
15.78,-0.1286,-0.2748,7.1702,-61.7638,132.9772,-685.0354,-83.3782
15.80,-0.1285,-0.2731,7.1676,-61.7693,133.1205,-686.2707,-83.3811
15.82,-0.1284,-0.2714,7.1650,-61.7747,133.2638,-687.5062,-83.3840
15.84,-0.1283,-0.2697,7.1625,-61.7801,133.4071,-688.7418,-83.3869
15.86,-0.1283,-0.2680,7.1599,-61.7855,133.5503,-689.9775,-83.3899
15.88,-0.1282,-0.2664,7.1573,-61.7908,133.6934,-691.2134,-83.3928
15.90,-0.1281,-0.2647,7.1548,-61.7961,133.8365,-692.4493,-83.3957
15.92,-0.1280,-0.2631,7.1522,-61.8014,133.9796,-693.6853,-83.3986
15.94,-0.1279,-0.2615,7.1497,-61.8066,134.1226,-694.9214,-83.4015
15.96,-0.1278,-0.2599,7.1471,-61.8118,134.2655,-696.1577,-83.4044
15.98,-0.1277,-0.2583,7.1446,-61.8170,134.4084,-697.3940,-83.4072
16.00,-0.1276,-0.2567,7.1420,-61.8221,134.5512,-698.6305,-83.4101
16.02,-0.1275,-0.2551,7.1394,-61.8272,134.6940,-699.8670,-83.4130
16.04,-0.1274,-0.2535,7.1369,-61.8323,134.8368,-701.1037,-83.4159
16.06,-0.1273,-0.2519,7.1344,-61.8373,134.9795,-702.3404,-83.4187
16.08,-0.1272,-0.2504,7.1318,-61.8423,135.1221,-703.5772,-83.4216
16.10,-0.1272,-0.2488,7.1293,-61.8473,135.2647,-704.8142,-83.4244
16.12,-0.1271,-0.2473,7.1267,-61.8522,135.4072,-706.0512,-83.4273
16.14,-0.1270,-0.2458,7.1242,-61.8572,135.5497,-707.2884,-83.4301
16.16,-0.1269,-0.2442,7.1216,-61.8620,135.6921,-708.5256,-83.4329
16.18,-0.1268,-0.2427,7.1191,-61.8669,135.8345,-709.7630,-83.4358
16.20,-0.1267,-0.2412,7.1166,-61.8717,135.9768,-711.0004,-83.4386
16.22,-0.1266,-0.2397,7.1140,-61.8765,136.1191,-712.2379,-83.4414
16.24,-0.1265,-0.2382,7.1115,-61.8813,136.2613,-713.4755,-83.4442
16.26,-0.1264,-0.2368,7.1090,-61.8860,136.4035,-714.7133,-83.4470
16.28,-0.1263,-0.2353,7.1065,-61.8907,136.5457,-715.9511,-83.4498
16.30,-0.1263,-0.2338,7.1039,-61.8954,136.6877,-717.1890,-83.4526
16.32,-0.1262,-0.2324,7.1014,-61.9000,136.8298,-718.4270,-83.4554
16.34,-0.1261,-0.2310,7.0989,-61.9047,136.9717,-719.6651,-83.4582
16.36,-0.1260,-0.2295,7.0964,-61.9093,137.1137,-720.9033,-83.4610
16.38,-0.1259,-0.2281,7.0939,-61.9138,137.2555,-722.1415,-83.4638
16.40,-0.1258,-0.2267,7.0913,-61.9183,137.3974,-723.3799,-83.4665
16.42,-0.1257,-0.2253,7.0888,-61.9229,137.5392,-724.6184,-83.4693
16.44,-0.1256,-0.2239,7.0863,-61.9273,137.6809,-725.8569,-83.4721
16.46,-0.1255,-0.2225,7.0838,-61.9318,137.8226,-727.0956,-83.4748
16.48,-0.1255,-0.2211,7.0813,-61.9362,137.9642,-728.3343,-83.4776
16.50,-0.1254,-0.2198,7.0788,-61.9406,138.1058,-729.5731,-83.4803
16.52,-0.1253,-0.2184,7.0763,-61.9450,138.2473,-730.8120,-83.4831
16.54,-0.1252,-0.2171,7.0738,-61.9493,138.3888,-732.0510,-83.4858
16.56,-0.1251,-0.2157,7.0713,-61.9536,138.5302,-733.2900,-83.4885
16.58,-0.1250,-0.2144,7.0688,-61.9579,138.6716,-734.5292,-83.4913
16.60,-0.1249,-0.2130,7.0663,-61.9622,138.8129,-735.7684,-83.4940
16.62,-0.1248,-0.2117,7.0638,-61.9664,138.9542,-737.0078,-83.4967
16.64,-0.1247,-0.2104,7.0613,-61.9706,139.0954,-738.2472,-83.4994
16.66,-0.1247,-0.2091,7.0588,-61.9748,139.2366,-739.4867,-83.5021
16.68,-0.1246,-0.2078,7.0563,-61.9790,139.3777,-740.7263,-83.5049
16.70,-0.1245,-0.2065,7.0538,-61.9831,139.5188,-741.9659,-83.5076
16.72,-0.1244,-0.2052,7.0513,-61.9872,139.6598,-743.2057,-83.5102
16.74,-0.1243,-0.2040,7.0488,-61.9913,139.8008,-744.4455,-83.5129
16.76,-0.1242,-0.2027,7.0463,-61.9953,139.9417,-745.6854,-83.5156
16.78,-0.1241,-0.2014,7.0439,-61.9994,140.0826,-746.9254,-83.5183
16.80,-0.1240,-0.2002,7.0414,-62.0034,140.2234,-748.1655,-83.5210
16.82,-0.1240,-0.1990,7.0389,-62.0073,140.3642,-749.4056,-83.5237
16.84,-0.1239,-0.1977,7.0364,-62.0113,140.5049,-750.6458,-83.5263
16.86,-0.1238,-0.1965,7.0340,-62.0152,140.6456,-751.8861,-83.5290
16.88,-0.1237,-0.1953,7.0315,-62.0191,140.7862,-753.1265,-83.5317
16.90,-0.1236,-0.1941,7.0290,-62.0230,140.9268,-754.3670,-83.5343
16.92,-0.1235,-0.1929,7.0265,-62.0269,141.0673,-755.6075,-83.5370
16.94,-0.1234,-0.1917,7.0241,-62.0307,141.2078,-756.8481,-83.5396
16.96,-0.1233,-0.1905,7.0216,-62.0345,141.3482,-758.0888,-83.5423
16.98,-0.1233,-0.1893,7.0191,-62.0383,141.4886,-759.3296,-83.5449
17.00,-0.1232,-0.1881,7.0167,-62.0421,141.6290,-760.5704,-83.5475
17.02,-0.1231,-0.1870,7.0142,-62.0458,141.7692,-761.8113,-83.5502
17.04,-0.1230,-0.1858,7.0117,-62.0495,141.9095,-763.0523,-83.5528
17.06,-0.1229,-0.1846,7.0093,-62.0532,142.0497,-764.2934,-83.5554
17.08,-0.1228,-0.1835,7.0068,-62.0569,142.1898,-765.5345,-83.5580
17.10,-0.1227,-0.1824,7.0044,-62.0605,142.3299,-766.7757,-83.5606
17.12,-0.1227,-0.1812,7.0019,-62.0641,142.4699,-768.0170,-83.5632
17.14,-0.1226,-0.1801,6.9995,-62.0677,142.6099,-769.2584,-83.5658
17.16,-0.1225,-0.1790,6.9970,-62.0713,142.7498,-770.4998,-83.5685
17.18,-0.1224,-0.1779,6.9946,-62.0749,142.8897,-771.7413,-83.5710
17.20,-0.1223,-0.1768,6.9921,-62.0784,143.0296,-772.9829,-83.5736
17.22,-0.1222,-0.1757,6.9897,-62.0819,143.1694,-774.2245,-83.5762
17.24,-0.1221,-0.1746,6.9872,-62.0854,143.3091,-775.4662,-83.5788
17.26,-0.1221,-0.1735,6.9848,-62.0889,143.4488,-776.7080,-83.5814
17.28,-0.1220,-0.1724,6.9824,-62.0923,143.5885,-777.9498,-83.5840
17.30,-0.1219,-0.1714,6.9799,-62.0958,143.7281,-779.1918,-83.5865
17.32,-0.1218,-0.1703,6.9775,-62.0992,143.8676,-780.4337,-83.5891
17.34,-0.1217,-0.1692,6.9751,-62.1026,144.0071,-781.6758,-83.5917
17.36,-0.1216,-0.1682,6.9726,-62.1059,144.1466,-782.9179,-83.5942
17.38,-0.1215,-0.1671,6.9702,-62.1093,144.2860,-784.1601,-83.5968
17.40,-0.1215,-0.1661,6.9678,-62.1126,144.4253,-785.4024,-83.5993
17.42,-0.1214,-0.1651,6.9653,-62.1159,144.5646,-786.6447,-83.6019
17.44,-0.1213,-0.1640,6.9629,-62.1192,144.7039,-787.8871,-83.6044
17.46,-0.1212,-0.1630,6.9605,-62.1224,144.8431,-789.1295,-83.6070
17.48,-0.1211,-0.1620,6.9581,-62.1257,144.9823,-790.3720,-83.6095
17.50,-0.1210,-0.1610,6.9556,-62.1289,145.1214,-791.6146,-83.6120
17.52,-0.1210,-0.1600,6.9532,-62.1321,145.2604,-792.8572,-83.6146
17.54,-0.1209,-0.1590,6.9508,-62.1353,145.3995,-794.0999,-83.6171
17.56,-0.1208,-0.1580,6.9484,-62.1384,145.5384,-795.3427,-83.6196
17.58,-0.1207,-0.1570,6.9460,-62.1416,145.6773,-796.5855,-83.6221
17.60,-0.1206,-0.1561,6.9436,-62.1447,145.8162,-797.8284,-83.6247
17.62,-0.1205,-0.1551,6.9412,-62.1478,145.9550,-799.0714,-83.6272
17.64,-0.1204,-0.1541,6.9387,-62.1509,146.0938,-800.3144,-83.6297
17.66,-0.1204,-0.1532,6.9363,-62.1539,146.2325,-801.5575,-83.6322
17.68,-0.1203,-0.1522,6.9339,-62.1570,146.3712,-802.8006,-83.6347
17.70,-0.1202,-0.1513,6.9315,-62.1600,146.5098,-804.0438,-83.6372
17.72,-0.1201,-0.1503,6.9291,-62.1630,146.6484,-805.2871,-83.6397
17.74,-0.1200,-0.1494,6.9267,-62.1660,146.7870,-806.5304,-83.6422
17.76,-0.1199,-0.1485,6.9243,-62.1690,146.9255,-807.7738,-83.6446
17.78,-0.1199,-0.1475,6.9219,-62.1719,147.0639,-809.0172,-83.6471
17.80,-0.1198,-0.1466,6.9195,-62.1749,147.2023,-810.2607,-83.6496
17.82,-0.1197,-0.1457,6.9171,-62.1778,147.3406,-811.5043,-83.6521
17.84,-0.1196,-0.1448,6.9147,-62.1807,147.4789,-812.7479,-83.6545
17.86,-0.1195,-0.1439,6.9124,-62.1835,147.6172,-813.9916,-83.6570
17.88,-0.1195,-0.1430,6.9100,-62.1864,147.7554,-815.2353,-83.6595
17.90,-0.1194,-0.1421,6.9076,-62.1893,147.8935,-816.4791,-83.6619
17.92,-0.1193,-0.1412,6.9052,-62.1921,148.0316,-817.7229,-83.6644
17.94,-0.1192,-0.1404,6.9028,-62.1949,148.1697,-818.9668,-83.6668
17.96,-0.1191,-0.1395,6.9004,-62.1977,148.3077,-820.2108,-83.6693
17.98,-0.1190,-0.1386,6.8980,-62.2004,148.4456,-821.4548,-83.6717
18.00,-0.1190,-0.1378,6.8957,-62.2032,148.5836,-822.6988,-83.6742
18.02,-0.1189,-0.1369,6.8933,-62.2059,148.7214,-823.9430,-83.6766
18.04,-0.1188,-0.1361,6.8909,-62.2087,148.8592,-825.1871,-83.6791
18.06,-0.1187,-0.1352,6.8885,-62.2114,148.9970,-826.4314,-83.6815
18.08,-0.1186,-0.1344,6.8862,-62.2141,149.1347,-827.6756,-83.6839
18.10,-0.1185,-0.1335,6.8838,-62.2167,149.2724,-828.9200,-83.6863
18.12,-0.1185,-0.1327,6.8814,-62.2194,149.4100,-830.1644,-83.6888
18.14,-0.1184,-0.1319,6.8791,-62.2220,149.5476,-831.4088,-83.6912
18.16,-0.1183,-0.1311,6.8767,-62.2246,149.6852,-832.6533,-83.6936
18.18,-0.1182,-0.1302,6.8743,-62.2272,149.8226,-833.8978,-83.6960
18.20,-0.1181,-0.1294,6.8720,-62.2298,149.9601,-835.1424,-83.6984
18.22,-0.1181,-0.1286,6.8696,-62.2324,150.0975,-836.3871,-83.7008
18.24,-0.1180,-0.1278,6.8672,-62.2350,150.2348,-837.6318,-83.7032
18.26,-0.1179,-0.1270,6.8649,-62.2375,150.3721,-838.8765,-83.7056
18.28,-0.1178,-0.1262,6.8625,-62.2400,150.5094,-840.1213,-83.7080
18.30,-0.1177,-0.1254,6.8602,-62.2425,150.6466,-841.3662,-83.7104
18.32,-0.1177,-0.1247,6.8578,-62.2450,150.7837,-842.6111,-83.7128
18.34,-0.1176,-0.1239,6.8555,-62.2475,150.9208,-843.8560,-83.7152
18.36,-0.1175,-0.1231,6.8531,-62.2500,151.0579,-845.1010,-83.7176
18.38,-0.1174,-0.1224,6.8508,-62.2524,151.1949,-846.3461,-83.7200
18.40,-0.1173,-0.1216,6.8484,-62.2548,151.3319,-847.5912,-83.7223
18.42,-0.1173,-0.1208,6.8461,-62.2573,151.4688,-848.8363,-83.7247
18.44,-0.1172,-0.1201,6.8437,-62.2597,151.6057,-850.0815,-83.7271
18.46,-0.1171,-0.1193,6.8414,-62.2620,151.7425,-851.3268,-83.7295
18.48,-0.1170,-0.1186,6.8391,-62.2644,151.8793,-852.5720,-83.7318
18.50,-0.1169,-0.1179,6.8367,-62.2668,152.0160,-853.8174,-83.7342
18.52,-0.1169,-0.1171,6.8344,-62.2691,152.1527,-855.0628,-83.7365
18.54,-0.1168,-0.1164,6.8320,-62.2714,152.2894,-856.3082,-83.7389
18.56,-0.1167,-0.1157,6.8297,-62.2738,152.4259,-857.5537,-83.7412
18.58,-0.1166,-0.1149,6.8274,-62.2761,152.5625,-858.7992,-83.7436
18.60,-0.1165,-0.1142,6.8250,-62.2783,152.6990,-860.0448,-83.7459
18.62,-0.1165,-0.1135,6.8227,-62.2806,152.8354,-861.2904,-83.7483
18.64,-0.1164,-0.1128,6.8204,-62.2829,152.9719,-862.5360,-83.7506
18.66,-0.1163,-0.1121,6.8181,-62.2851,153.1082,-863.7817,-83.7530
18.68,-0.1162,-0.1114,6.8157,-62.2873,153.2445,-865.0275,-83.7553
18.70,-0.1161,-0.1107,6.8134,-62.2896,153.3808,-866.2733,-83.7576
18.72,-0.1161,-0.1100,6.8111,-62.2918,153.5170,-867.5191,-83.7600
18.74,-0.1160,-0.1093,6.8088,-62.2939,153.6532,-868.7650,-83.7623
18.76,-0.1159,-0.1087,6.8065,-62.2961,153.7893,-870.0109,-83.7646
18.78,-0.1158,-0.1080,6.8041,-62.2983,153.9254,-871.2569,-83.7669
18.80,-0.1157,-0.1073,6.8018,-62.3004,154.0614,-872.5029,-83.7692
18.82,-0.1157,-0.1066,6.7995,-62.3026,154.1974,-873.7489,-83.7716
18.84,-0.1156,-0.1060,6.7972,-62.3047,154.3334,-874.9950,-83.7739
18.86,-0.1155,-0.1053,6.7949,-62.3068,154.4693,-876.2412,-83.7762
18.88,-0.1154,-0.1047,6.7926,-62.3089,154.6051,-877.4873,-83.7785
18.90,-0.1153,-0.1040,6.7903,-62.3110,154.7409,-878.7336,-83.7808
18.92,-0.1153,-0.1034,6.7880,-62.3130,154.8767,-879.9798,-83.7831
18.94,-0.1152,-0.1027,6.7857,-62.3151,155.0124,-881.2261,-83.7854
18.96,-0.1151,-0.1021,6.7834,-62.3171,155.1481,-882.4725,-83.7877
18.98,-0.1150,-0.1014,6.7811,-62.3191,155.2837,-883.7188,-83.7900
19.00,-0.1150,-0.1008,6.7788,-62.3212,155.4193,-884.9653,-83.7923
19.02,-0.1149,-0.1002,6.7765,-62.3232,155.5548,-886.2117,-83.7945
19.04,-0.1148,-0.0996,6.7742,-62.3252,155.6903,-887.4582,-83.7968
19.06,-0.1147,-0.0989,6.7719,-62.3271,155.8257,-888.7048,-83.7991
19.08,-0.1146,-0.0983,6.7696,-62.3291,155.9611,-889.9514,-83.8014
19.10,-0.1146,-0.0977,6.7673,-62.3311,156.0965,-891.1980,-83.8037
19.12,-0.1145,-0.0971,6.7650,-62.3330,156.2318,-892.4446,-83.8059
19.14,-0.1144,-0.0965,6.7627,-62.3349,156.3670,-893.6913,-83.8082
19.16,-0.1143,-0.0959,6.7604,-62.3368,156.5022,-894.9381,-83.8105
19.18,-0.1143,-0.0953,6.7581,-62.3388,156.6374,-896.1848,-83.8127
19.20,-0.1142,-0.0947,6.7559,-62.3406,156.7725,-897.4317,-83.8150
19.22,-0.1141,-0.0941,6.7536,-62.3425,156.9076,-898.6785,-83.8172
19.24,-0.1140,-0.0935,6.7513,-62.3444,157.0426,-899.9254,-83.8195
19.26,-0.1140,-0.0929,6.7490,-62.3463,157.1776,-901.1723,-83.8218
19.28,-0.1139,-0.0924,6.7467,-62.3481,157.3125,-902.4193,-83.8240
19.30,-0.1138,-0.0918,6.7445,-62.3499,157.4474,-903.6663,-83.8263
19.32,-0.1137,-0.0912,6.7422,-62.3518,157.5823,-904.9133,-83.8285
19.34,-0.1136,-0.0906,6.7399,-62.3536,157.7171,-906.1604,-83.8307
19.36,-0.1136,-0.0901,6.7376,-62.3554,157.8518,-907.4075,-83.8330
19.38,-0.1135,-0.0895,6.7354,-62.3572,157.9865,-908.6546,-83.8352
19.40,-0.1134,-0.0890,6.7331,-62.3589,158.1212,-909.9018,-83.8375
19.42,-0.1133,-0.0884,6.7308,-62.3607,158.2558,-911.1490,-83.8397
19.44,-0.1133,-0.0879,6.7286,-62.3625,158.3904,-912.3963,-83.8419
19.46,-0.1132,-0.0873,6.7263,-62.3642,158.5249,-913.6436,-83.8441
19.48,-0.1131,-0.0868,6.7241,-62.3660,158.6594,-914.8909,-83.8464
19.50,-0.1130,-0.0862,6.7218,-62.3677,158.7938,-916.1382,-83.8486
19.52,-0.1130,-0.0857,6.7195,-62.3694,158.9282,-917.3856,-83.8508
19.54,-0.1129,-0.0851,6.7173,-62.3711,159.0625,-918.6331,-83.8530
19.56,-0.1128,-0.0846,6.7150,-62.3728,159.1968,-919.8805,-83.8552
19.58,-0.1127,-0.0841,6.7128,-62.3745,159.3311,-921.1280,-83.8574
19.60,-0.1127,-0.0836,6.7105,-62.3761,159.4653,-922.3755,-83.8597
19.62,-0.1126,-0.0830,6.7083,-62.3778,159.5995,-923.6231,-83.8619
19.64,-0.1125,-0.0825,6.7060,-62.3795,159.7336,-924.8707,-83.8641
19.66,-0.1124,-0.0820,6.7038,-62.3811,159.8677,-926.1183,-83.8663
19.68,-0.1124,-0.0815,6.7015,-62.3827,160.0017,-927.3659,-83.8685
19.70,-0.1123,-0.0810,6.6993,-62.3843,160.1357,-928.6136,-83.8707
19.72,-0.1122,-0.0805,6.6970,-62.3860,160.2696,-929.8613,-83.8729
19.74,-0.1121,-0.0800,6.6948,-62.3876,160.4035,-931.1091,-83.8751
19.76,-0.1121,-0.0795,6.6925,-62.3891,160.5374,-932.3569,-83.8772
19.78,-0.1120,-0.0790,6.6903,-62.3907,160.6712,-933.6047,-83.8794
19.80,-0.1119,-0.0785,6.6881,-62.3923,160.8049,-934.8525,-83.8816
19.82,-0.1118,-0.0780,6.6858,-62.3939,160.9387,-936.1004,-83.8838
19.84,-0.1118,-0.0775,6.6836,-62.3954,161.0723,-937.3483,-83.8860
19.86,-0.1117,-0.0770,6.6814,-62.3969,161.2060,-938.5963,-83.8882
19.88,-0.1116,-0.0766,6.6791,-62.3985,161.3395,-939.8442,-83.8903
19.90,-0.1115,-0.0761,6.6769,-62.4000,161.4731,-941.0922,-83.8925
19.92,-0.1115,-0.0756,6.6747,-62.4015,161.6066,-942.3403,-83.8947
19.94,-0.1114,-0.0751,6.6724,-62.4030,161.7400,-943.5883,-83.8968
19.96,-0.1113,-0.0747,6.6702,-62.4045,161.8734,-944.8364,-83.8990
19.98,-0.1112,-0.0742,6.6680,-62.4060,162.0068,-946.0845,-83.9012
20.00,-0.1112,-0.0737,6.6658,-62.4075,162.1401,-947.3327,-83.9033
20.02,-0.1111,-0.0733,6.6635,-62.4089,162.2734,-948.5809,-83.9055
20.04,-0.1110,-0.0728,6.6613,-62.4104,162.4066,-949.8291,-83.9076
20.06,-0.1109,-0.0724,6.6591,-62.4118,162.5398,-951.0773,-83.9098
20.08,-0.1109,-0.0719,6.6569,-62.4133,162.6729,-952.3256,-83.9120
20.10,-0.1108,-0.0715,6.6547,-62.4147,162.8060,-953.5739,-83.9141
20.12,-0.1107,-0.0710,6.6525,-62.4161,162.9391,-954.8222,-83.9162
20.14,-0.1106,-0.0706,6.6502,-62.4175,163.0721,-956.0705,-83.9184
20.16,-0.1106,-0.0701,6.6480,-62.4189,163.2050,-957.3189,-83.9205
20.18,-0.1105,-0.0697,6.6458,-62.4203,163.3379,-958.5673,-83.9227
20.20,-0.1104,-0.0693,6.6436,-62.4217,163.4708,-959.8158,-83.9248
20.22,-0.1103,-0.0688,6.6414,-62.4231,163.6036,-961.0642,-83.9269
20.24,-0.1103,-0.0684,6.6392,-62.4245,163.7364,-962.3127,-83.9291
20.26,-0.1102,-0.0680,6.6370,-62.4258,163.8692,-963.5612,-83.9312
20.28,-0.1101,-0.0675,6.6348,-62.4272,164.0019,-964.8098,-83.9333
20.30,-0.1101,-0.0671,6.6326,-62.4285,164.1345,-966.0583,-83.9355
20.32,-0.1100,-0.0667,6.6304,-62.4298,164.2671,-967.3069,-83.9376
20.34,-0.1099,-0.0663,6.6282,-62.4312,164.3997,-968.5556,-83.9397
20.36,-0.1098,-0.0659,6.6260,-62.4325,164.5322,-969.8042,-83.9418
20.38,-0.1098,-0.0655,6.6238,-62.4338,164.6647,-971.0529,-83.9440
20.40,-0.1097,-0.0651,6.6216,-62.4351,164.7971,-972.3016,-83.9461
20.42,-0.1096,-0.0646,6.6194,-62.4364,164.9295,-973.5503,-83.9482
20.44,-0.1095,-0.0642,6.6172,-62.4377,165.0618,-974.7991,-83.9503
20.46,-0.1095,-0.0638,6.6150,-62.4390,165.1941,-976.0478,-83.9524
20.48,-0.1094,-0.0634,6.6129,-62.4402,165.3264,-977.2967,-83.9545
20.50,-0.1093,-0.0630,6.6107,-62.4415,165.4586,-978.5455,-83.9566
20.52,-0.1093,-0.0627,6.6085,-62.4427,165.5908,-979.7943,-83.9587
20.54,-0.1092,-0.0623,6.6063,-62.4440,165.7229,-981.0432,-83.9608
20.56,-0.1091,-0.0619,6.6041,-62.4452,165.8550,-982.2921,-83.9629
20.58,-0.1090,-0.0615,6.6019,-62.4464,165.9870,-983.5411,-83.9650
20.60,-0.1090,-0.0611,6.5998,-62.4477,166.1190,-984.7900,-83.9671
20.62,-0.1089,-0.0607,6.5976,-62.4489,166.2510,-986.0390,-83.9692
20.64,-0.1088,-0.0603,6.5954,-62.4501,166.3829,-987.2880,-83.9713
20.66,-0.1087,-0.0600,6.5932,-62.4513,166.5147,-988.5370,-83.9734
20.68,-0.1087,-0.0596,6.5911,-62.4525,166.6466,-989.7861,-83.9755
20.70,-0.1086,-0.0592,6.5889,-62.4537,166.7783,-991.0351,-83.9776
20.72,-0.1085,-0.0588,6.5867,-62.4548,166.9101,-992.2842,-83.9796
20.74,-0.1085,-0.0585,6.5845,-62.4560,167.0418,-993.5333,-83.9817
20.76,-0.1084,-0.0581,6.5824,-62.4572,167.1734,-994.7825,-83.9838
20.78,-0.1083,-0.0578,6.5802,-62.4583,167.3050,-996.0317,-83.9859
20.80,-0.1082,-0.0574,6.5780,-62.4595,167.4366,-997.2808,-83.9879
20.82,-0.1082,-0.0570,6.5759,-62.4606,167.5681,-998.5301,-83.9900
20.84,-0.1081,-0.0567,6.5737,-62.4618,167.6996,-999.7793,-83.9921
20.86,-0.1080,-0.0563,6.5716,-62.4629,167.8310,-1001.0286,-83.9942
20.88,-0.1080,-0.0560,6.5694,-62.4640,167.9624,-1002.2778,-83.9962
20.90,-0.1079,-0.0556,6.5672,-62.4651,168.0937,-1003.5271,-83.9983
20.92,-0.1078,-0.0553,6.5651,-62.4662,168.2250,-1004.7765,-84.0003
20.94,-0.1078,-0.0549,6.5629,-62.4673,168.3563,-1006.0258,-84.0024
20.96,-0.1077,-0.0546,6.5608,-62.4684,168.4875,-1007.2752,-84.0045
20.98,-0.1076,-0.0542,6.5586,-62.4695,168.6187,-1008.5246,-84.0065
21.00,-0.1075,-0.0539,6.5565,-62.4706,168.7498,-1009.7740,-84.0086
21.02,-0.1075,-0.0536,6.5543,-62.4716,168.8809,-1011.0234,-84.0106
21.04,-0.1074,-0.0532,6.5522,-62.4727,169.0119,-1012.2729,-84.0127
21.06,-0.1073,-0.0529,6.5500,-62.4738,169.1429,-1013.5223,-84.0147
21.08,-0.1073,-0.0526,6.5479,-62.4748,169.2739,-1014.7718,-84.0168
21.10,-0.1072,-0.0522,6.5457,-62.4759,169.4048,-1016.0214,-84.0188
21.12,-0.1071,-0.0519,6.5436,-62.4769,169.5357,-1017.2709,-84.0209
21.14,-0.1070,-0.0516,6.5415,-62.4779,169.6665,-1018.5204,-84.0229
21.16,-0.1070,-0.0513,6.5393,-62.4790,169.7973,-1019.7700,-84.0249
21.18,-0.1069,-0.0510,6.5372,-62.4800,169.9281,-1021.0196,-84.0270
21.20,-0.1068,-0.0506,6.5350,-62.4810,170.0588,-1022.2692,-84.0290
21.22,-0.1068,-0.0503,6.5329,-62.4820,170.1894,-1023.5189,-84.0310
21.24,-0.1067,-0.0500,6.5308,-62.4830,170.3200,-1024.7685,-84.0331
21.26,-0.1066,-0.0497,6.5286,-62.4840,170.4506,-1026.0182,-84.0351
21.28,-0.1066,-0.0494,6.5265,-62.4850,170.5811,-1027.2679,-84.0371
21.30,-0.1065,-0.0491,6.5244,-62.4860,170.7116,-1028.5176,-84.0391
21.32,-0.1064,-0.0488,6.5222,-62.4869,170.8421,-1029.7674,-84.0412
21.34,-0.1063,-0.0485,6.5201,-62.4879,170.9725,-1031.0171,-84.0432
21.36,-0.1063,-0.0482,6.5180,-62.4889,171.1028,-1032.2669,-84.0452
21.38,-0.1062,-0.0479,6.5159,-62.4898,171.2331,-1033.5167,-84.0472
21.40,-0.1061,-0.0476,6.5137,-62.4908,171.3634,-1034.7665,-84.0492
21.42,-0.1061,-0.0473,6.5116,-62.4917,171.4936,-1036.0164,-84.0513
21.44,-0.1060,-0.0470,6.5095,-62.4927,171.6238,-1037.2662,-84.0533
21.46,-0.1059,-0.0467,6.5074,-62.4936,171.7540,-1038.5161,-84.0553
21.48,-0.1059,-0.0464,6.5053,-62.4945,171.8841,-1039.7660,-84.0573
21.50,-0.1058,-0.0461,6.5032,-62.4954,172.0142,-1041.0159,-84.0593
21.52,-0.1057,-0.0458,6.5010,-62.4964,172.1442,-1042.2658,-84.0613
21.54,-0.1057,-0.0455,6.4989,-62.4973,172.2742,-1043.5158,-84.0633
21.56,-0.1056,-0.0452,6.4968,-62.4982,172.4041,-1044.7657,-84.0653
21.58,-0.1055,-0.0449,6.4947,-62.4991,172.5340,-1046.0157,-84.0673
21.60,-0.1055,-0.0447,6.4926,-62.5000,172.6638,-1047.2657,-84.0693
21.62,-0.1054,-0.0444,6.4905,-62.5008,172.7936,-1048.5157,-84.0713
21.64,-0.1053,-0.0441,6.4884,-62.5017,172.9234,-1049.7658,-84.0733
21.66,-0.1052,-0.0438,6.4863,-62.5026,173.0531,-1051.0158,-84.0753
21.68,-0.1052,-0.0436,6.4842,-62.5035,173.1828,-1052.2659,-84.0773
21.70,-0.1051,-0.0433,6.4821,-62.5043,173.3125,-1053.5160,-84.0793
21.72,-0.1050,-0.0430,6.4800,-62.5052,173.4421,-1054.7661,-84.0812
21.74,-0.1050,-0.0427,6.4779,-62.5061,173.5716,-1056.0162,-84.0832
21.76,-0.1049,-0.0425,6.4758,-62.5069,173.7011,-1057.2663,-84.0852
21.78,-0.1048,-0.0422,6.4737,-62.5078,173.8306,-1058.5165,-84.0872
21.80,-0.1048,-0.0420,6.4716,-62.5086,173.9600,-1059.7667,-84.0892
21.82,-0.1047,-0.0417,6.4695,-62.5094,174.0894,-1061.0168,-84.0911
21.84,-0.1046,-0.0414,6.4674,-62.5103,174.2188,-1062.2670,-84.0931
21.86,-0.1046,-0.0412,6.4653,-62.5111,174.3481,-1063.5173,-84.0951
21.88,-0.1045,-0.0409,6.4632,-62.5119,174.4773,-1064.7675,-84.0971
21.90,-0.1044,-0.0407,6.4611,-62.5127,174.6066,-1066.0178,-84.0990
21.92,-0.1044,-0.0404,6.4590,-62.5135,174.7358,-1067.2680,-84.1010
21.94,-0.1043,-0.0401,6.4570,-62.5143,174.8649,-1068.5183,-84.1030
21.96,-0.1042,-0.0399,6.4549,-62.5151,174.9940,-1069.7686,-84.1049
21.98,-0.1042,-0.0396,6.4528,-62.5159,175.1230,-1071.0189,-84.1069
22.00,-0.1041,-0.0394,6.4507,-62.5167,175.2521,-1072.2693,-84.1089
22.02,-0.1040,-0.0392,6.4486,-62.5175,175.3810,-1073.5196,-84.1108
22.04,-0.1040,-0.0389,6.4465,-62.5183,175.5100,-1074.7700,-84.1128
22.06,-0.1039,-0.0387,6.4445,-62.5190,175.6389,-1076.0204,-84.1147
22.08,-0.1038,-0.0384,6.4424,-62.5198,175.7677,-1077.2708,-84.1167
22.10,-0.1038,-0.0382,6.4403,-62.5206,175.8965,-1078.5212,-84.1186
22.12,-0.1037,-0.0379,6.4382,-62.5213,176.0253,-1079.7716,-84.1206
22.14,-0.1036,-0.0377,6.4362,-62.5221,176.1540,-1081.0220,-84.1225
22.16,-0.1036,-0.0375,6.4341,-62.5228,176.2827,-1082.2725,-84.1245
22.18,-0.1035,-0.0372,6.4320,-62.5236,176.4113,-1083.5230,-84.1264
22.20,-0.1034,-0.0370,6.4300,-62.5243,176.5399,-1084.7735,-84.1284
22.22,-0.1034,-0.0368,6.4279,-62.5251,176.6685,-1086.0240,-84.1303
22.24,-0.1033,-0.0365,6.4258,-62.5258,176.7970,-1087.2745,-84.1323
22.26,-0.1032,-0.0363,6.4238,-62.5265,176.9255,-1088.5250,-84.1342
22.28,-0.1032,-0.0361,6.4217,-62.5272,177.0539,-1089.7756,-84.1361
22.30,-0.1031,-0.0359,6.4196,-62.5279,177.1823,-1091.0261,-84.1381
22.32,-0.1030,-0.0356,6.4176,-62.5287,177.3106,-1092.2767,-84.1400
22.34,-0.1030,-0.0354,6.4155,-62.5294,177.4390,-1093.5273,-84.1420
22.36,-0.1029,-0.0352,6.4135,-62.5301,177.5672,-1094.7779,-84.1439
22.38,-0.1028,-0.0350,6.4114,-62.5308,177.6954,-1096.0285,-84.1458
22.40,-0.1028,-0.0348,6.4093,-62.5315,177.8236,-1097.2791,-84.1477
22.42,-0.1027,-0.0345,6.4073,-62.5322,177.9518,-1098.5298,-84.1497
22.44,-0.1026,-0.0343,6.4052,-62.5328,178.0799,-1099.7804,-84.1516
22.46,-0.1026,-0.0341,6.4032,-62.5335,178.2079,-1101.0311,-84.1535
22.48,-0.1025,-0.0339,6.4011,-62.5342,178.3360,-1102.2818,-84.1554
22.50,-0.1024,-0.0337,6.3991,-62.5349,178.4640,-1103.5325,-84.1574
22.52,-0.1024,-0.0335,6.3970,-62.5355,178.5919,-1104.7832,-84.1593
22.54,-0.1023,-0.0333,6.3950,-62.5362,178.7198,-1106.0339,-84.1612
22.56,-0.1022,-0.0331,6.3929,-62.5369,178.8477,-1107.2846,-84.1631
22.58,-0.1022,-0.0328,6.3909,-62.5375,178.9755,-1108.5354,-84.1650
22.60,-0.1021,-0.0326,6.3889,-62.5382,179.1032,-1109.7862,-84.1669
22.62,-0.1020,-0.0324,6.3868,-62.5388,179.2310,-1111.0369,-84.1688
22.64,-0.1020,-0.0322,6.3848,-62.5395,179.3587,-1112.2877,-84.1708
22.66,-0.1019,-0.0320,6.3827,-62.5401,179.4863,-1113.5385,-84.1727
22.68,-0.1018,-0.0318,6.3807,-62.5408,179.6140,-1114.7893,-84.1746
22.70,-0.1018,-0.0316,6.3787,-62.5414,179.7415,-1116.0402,-84.1765
22.72,-0.1017,-0.0314,6.3766,-62.5420,179.8691,-1117.2910,-84.1784
22.74,-0.1017,-0.0312,6.3746,-62.5426,179.9965,-1118.5419,-84.1803
22.76,-0.1016,-0.0310,6.3726,-62.5433,180.1240,-1119.7927,-84.1822
22.78,-0.1015,-0.0309,6.3705,-62.5439,180.2514,-1121.0436,-84.1841
22.80,-0.1015,-0.0307,6.3685,-62.5445,180.3788,-1122.2945,-84.1860
22.82,-0.1014,-0.0305,6.3665,-62.5451,180.5061,-1123.5454,-84.1879
22.84,-0.1013,-0.0303,6.3645,-62.5457,180.6334,-1124.7963,-84.1898
22.86,-0.1013,-0.0301,6.3624,-62.5463,180.7606,-1126.0472,-84.1917
22.88,-0.1012,-0.0299,6.3604,-62.5469,180.8879,-1127.2982,-84.1935
22.90,-0.1011,-0.0297,6.3584,-62.5475,181.0150,-1128.5491,-84.1954
22.92,-0.1011,-0.0295,6.3564,-62.5481,181.1422,-1129.8001,-84.1973
22.94,-0.1010,-0.0293,6.3543,-62.5487,181.2692,-1131.0511,-84.1992
22.96,-0.1009,-0.0292,6.3523,-62.5493,181.3963,-1132.3020,-84.2011
22.98,-0.1009,-0.0290,6.3503,-62.5498,181.5233,-1133.5530,-84.2030
23.00,-0.1008,-0.0288,6.3483,-62.5504,181.6503,-1134.8040,-84.2048
23.02,-0.1008,-0.0286,6.3463,-62.5510,181.7772,-1136.0551,-84.2067
23.04,-0.1007,-0.0284,6.3443,-62.5516,181.9041,-1137.3061,-84.2086
23.06,-0.1006,-0.0283,6.3422,-62.5521,182.0309,-1138.5571,-84.2105
23.08,-0.1006,-0.0281,6.3402,-62.5527,182.1577,-1139.8082,-84.2124
23.10,-0.1005,-0.0279,6.3382,-62.5532,182.2845,-1141.0593,-84.2142
23.12,-0.1004,-0.0277,6.3362,-62.5538,182.4112,-1142.3103,-84.2161
23.14,-0.1004,-0.0276,6.3342,-62.5543,182.5379,-1143.5614,-84.2180
23.16,-0.1003,-0.0274,6.3322,-62.5549,182.6645,-1144.8125,-84.2198
23.18,-0.1002,-0.0272,6.3302,-62.5554,182.7911,-1146.0636,-84.2217
23.20,-0.1002,-0.0270,6.3282,-62.5560,182.9177,-1147.3148,-84.2236
23.22,-0.1001,-0.0269,6.3262,-62.5565,183.0442,-1148.5659,-84.2254
23.24,-0.1001,-0.0267,6.3242,-62.5571,183.1707,-1149.8170,-84.2273
23.26,-0.1000,-0.0265,6.3222,-62.5576,183.2972,-1151.0682,-84.2292
23.28,-0.0999,-0.0264,6.3202,-62.5581,183.4236,-1152.3193,-84.2310
23.30,-0.0999,-0.0262,6.3182,-62.5586,183.5499,-1153.5705,-84.2329
23.32,-0.0998,-0.0260,6.3162,-62.5592,183.6762,-1154.8217,-84.2347
23.34,-0.0997,-0.0259,6.3142,-62.5597,183.8025,-1156.0729,-84.2366
23.36,-0.0997,-0.0257,6.3122,-62.5602,183.9288,-1157.3241,-84.2385
23.38,-0.0996,-0.0256,6.3102,-62.5607,184.0550,-1158.5753,-84.2403
23.40,-0.0995,-0.0254,6.3082,-62.5612,184.1811,-1159.8265,-84.2422
23.42,-0.0995,-0.0252,6.3062,-62.5617,184.3073,-1161.0778,-84.2440
23.44,-0.0994,-0.0251,6.3043,-62.5622,184.4334,-1162.3290,-84.2459
23.46,-0.0994,-0.0249,6.3023,-62.5627,184.5594,-1163.5803,-84.2477
23.48,-0.0993,-0.0248,6.3003,-62.5632,184.6854,-1164.8315,-84.2495
23.50,-0.0992,-0.0246,6.2983,-62.5637,184.8114,-1166.0828,-84.2514
23.52,-0.0992,-0.0245,6.2963,-62.5642,184.9373,-1167.3341,-84.2532
23.54,-0.0991,-0.0243,6.2943,-62.5647,185.0632,-1168.5854,-84.2551
23.56,-0.0990,-0.0242,6.2923,-62.5652,185.1890,-1169.8367,-84.2569
23.58,-0.0990,-0.0240,6.2904,-62.5656,185.3148,-1171.0880,-84.2588
23.60,-0.0989,-0.0239,6.2884,-62.5661,185.4406,-1172.3393,-84.2606
23.62,-0.0989,-0.0237,6.2864,-62.5666,185.5663,-1173.5906,-84.2624
23.64,-0.0988,-0.0236,6.2844,-62.5671,185.6920,-1174.8420,-84.2643
23.66,-0.0987,-0.0234,6.2825,-62.5675,185.8177,-1176.0933,-84.2661
23.68,-0.0987,-0.0233,6.2805,-62.5680,185.9433,-1177.3447,-84.2679
23.70,-0.0986,-0.0231,6.2785,-62.5685,186.0689,-1178.5961,-84.2698
23.72,-0.0985,-0.0230,6.2765,-62.5689,186.1944,-1179.8474,-84.2716
23.74,-0.0985,-0.0228,6.2746,-62.5694,186.3199,-1181.0988,-84.2734
23.76,-0.0984,-0.0227,6.2726,-62.5698,186.4453,-1182.3502,-84.2752
23.78,-0.0984,-0.0225,6.2706,-62.5703,186.5707,-1183.6016,-84.2771
23.80,-0.0983,-0.0224,6.2687,-62.5707,186.6961,-1184.8530,-84.2789
23.82,-0.0982,-0.0223,6.2667,-62.5712,186.8214,-1186.1045,-84.2807
23.84,-0.0982,-0.0221,6.2647,-62.5716,186.9467,-1187.3559,-84.2825
23.86,-0.0981,-0.0220,6.2628,-62.5721,187.0720,-1188.6073,-84.2843
23.88,-0.0981,-0.0218,6.2608,-62.5725,187.1972,-1189.8588,-84.2862
23.90,-0.0980,-0.0217,6.2589,-62.5729,187.3224,-1191.1103,-84.2880
23.92,-0.0979,-0.0216,6.2569,-62.5734,187.4475,-1192.3617,-84.2898
23.94,-0.0979,-0.0214,6.2549,-62.5738,187.5726,-1193.6132,-84.2916
23.96,-0.0978,-0.0213,6.2530,-62.5742,187.6977,-1194.8647,-84.2934
23.98,-0.0977,-0.0212,6.2510,-62.5746,187.8227,-1196.1162,-84.2952
24.00,-0.0977,-0.0210,6.2491,-62.5751,187.9477,-1197.3677,-84.2970
24.02,-0.0976,-0.0209,6.2471,-62.5755,188.0726,-1198.6192,-84.2989
24.04,-0.0976,-0.0208,6.2452,-62.5759,188.1975,-1199.8707,-84.3007
24.06,-0.0975,-0.0206,6.2432,-62.5763,188.3224,-1201.1222,-84.3025
24.08,-0.0974,-0.0205,6.2413,-62.5767,188.4472,-1202.3738,-84.3043
24.10,-0.0974,-0.0204,6.2393,-62.5771,188.5720,-1203.6253,-84.3061
24.12,-0.0973,-0.0203,6.2374,-62.5775,188.6968,-1204.8769,-84.3079
24.14,-0.0973,-0.0201,6.2354,-62.5779,188.8215,-1206.1284,-84.3097
24.16,-0.0972,-0.0200,6.2335,-62.5783,188.9461,-1207.3800,-84.3115
24.18,-0.0971,-0.0199,6.2316,-62.5787,189.0708,-1208.6316,-84.3133
24.20,-0.0971,-0.0198,6.2296,-62.5791,189.1954,-1209.8831,-84.3151
24.22,-0.0970,-0.0196,6.2277,-62.5795,189.3199,-1211.1347,-84.3169
24.24,-0.0970,-0.0195,6.2257,-62.5799,189.4444,-1212.3863,-84.3187
24.26,-0.0969,-0.0194,6.2238,-62.5803,189.5689,-1213.6379,-84.3204
24.28,-0.0968,-0.0193,6.2219,-62.5807,189.6933,-1214.8895,-84.3222
24.30,-0.0968,-0.0191,6.2199,-62.5811,189.8177,-1216.1412,-84.3240
24.32,-0.0967,-0.0190,6.2180,-62.5814,189.9421,-1217.3928,-84.3258
24.34,-0.0967,-0.0189,6.2161,-62.5818,190.0664,-1218.6444,-84.3276
24.36,-0.0966,-0.0188,6.2141,-62.5822,190.1907,-1219.8961,-84.3294
24.38,-0.0965,-0.0187,6.2122,-62.5826,190.3149,-1221.1477,-84.3312
24.40,-0.0965,-0.0186,6.2103,-62.5829,190.4392,-1222.3994,-84.3329
24.42,-0.0964,-0.0184,6.2083,-62.5833,190.5633,-1223.6510,-84.3347
24.44,-0.0964,-0.0183,6.2064,-62.5837,190.6874,-1224.9027,-84.3365
24.46,-0.0963,-0.0182,6.2045,-62.5840,190.8115,-1226.1544,-84.3383
24.48,-0.0962,-0.0181,6.2026,-62.5844,190.9356,-1227.4061,-84.3401
24.50,-0.0962,-0.0180,6.2006,-62.5848,191.0596,-1228.6578,-84.3418
24.52,-0.0961,-0.0179,6.1987,-62.5851,191.1836,-1229.9095,-84.3436
24.54,-0.0961,-0.0178,6.1968,-62.5855,191.3075,-1231.1612,-84.3454
24.56,-0.0960,-0.0176,6.1949,-62.5858,191.4314,-1232.4129,-84.3472
24.58,-0.0959,-0.0175,6.1929,-62.5862,191.5553,-1233.6646,-84.3489
24.60,-0.0959,-0.0174,6.1910,-62.5865,191.6791,-1234.9164,-84.3507
24.62,-0.0958,-0.0173,6.1891,-62.5869,191.8029,-1236.1681,-84.3525
24.64,-0.0958,-0.0172,6.1872,-62.5872,191.9266,-1237.4198,-84.3542
24.66,-0.0957,-0.0171,6.1853,-62.5876,192.0503,-1238.6716,-84.3560
24.68,-0.0956,-0.0170,6.1834,-62.5879,192.1740,-1239.9234,-84.3578
24.70,-0.0956,-0.0169,6.1815,-62.5882,192.2976,-1241.1751,-84.3595
24.72,-0.0955,-0.0168,6.1796,-62.5886,192.4212,-1242.4269,-84.3613
24.74,-0.0955,-0.0167,6.1776,-62.5889,192.5448,-1243.6787,-84.3631
24.76,-0.0954,-0.0166,6.1757,-62.5892,192.6683,-1244.9305,-84.3648
24.78,-0.0953,-0.0165,6.1738,-62.5896,192.7918,-1246.1822,-84.3666
24.80,-0.0953,-0.0164,6.1719,-62.5899,192.9152,-1247.4340,-84.3683
24.82,-0.0952,-0.0163,6.1700,-62.5902,193.0386,-1248.6859,-84.3701
24.84,-0.0952,-0.0162,6.1681,-62.5905,193.1620,-1249.9377,-84.3718
24.86,-0.0951,-0.0161,6.1662,-62.5909,193.2853,-1251.1895,-84.3736
24.88,-0.0951,-0.0160,6.1643,-62.5912,193.4086,-1252.4413,-84.3753
24.90,-0.0950,-0.0159,6.1624,-62.5915,193.5318,-1253.6931,-84.3771
24.92,-0.0949,-0.0158,6.1605,-62.5918,193.6550,-1254.9450,-84.3788
24.94,-0.0949,-0.0157,6.1586,-62.5921,193.7782,-1256.1968,-84.3806
24.96,-0.0948,-0.0156,6.1567,-62.5924,193.9013,-1257.4487,-84.3823
24.98,-0.0948,-0.0155,6.1548,-62.5927,194.0244,-1258.7005,-84.3841
25.00,-0.0947,-0.0154,6.1529,-62.5931,194.1475,-1259.9524,-84.3858
25.02,-0.0946,-0.0153,6.1510,-62.5934,194.2705,-1261.2042,-84.3876
25.04,-0.0946,-0.0152,6.1491,-62.5937,194.3935,-1262.4561,-84.3893
25.06,-0.0945,-0.0151,6.1473,-62.5940,194.5164,-1263.7080,-84.3911
25.08,-0.0945,-0.0150,6.1454,-62.5943,194.6393,-1264.9599,-84.3928
25.10,-0.0944,-0.0149,6.1435,-62.5946,194.7622,-1266.2118,-84.3945
25.12,-0.0944,-0.0148,6.1416,-62.5949,194.8850,-1267.4637,-84.3963
25.14,-0.0943,-0.0147,6.1397,-62.5952,195.0078,-1268.7156,-84.3980
25.16,-0.0942,-0.0146,6.1378,-62.5954,195.1306,-1269.9675,-84.3997
25.18,-0.0942,-0.0145,6.1359,-62.5957,195.2533,-1271.2194,-84.4015
25.20,-0.0941,-0.0144,6.1340,-62.5960,195.3760,-1272.4713,-84.4032
25.22,-0.0941,-0.0143,6.1322,-62.5963,195.4986,-1273.7232,-84.4049
25.24,-0.0940,-0.0143,6.1303,-62.5966,195.6212,-1274.9752,-84.4067
25.26,-0.0940,-0.0142,6.1284,-62.5969,195.7438,-1276.2271,-84.4084
25.28,-0.0939,-0.0141,6.1265,-62.5972,195.8663,-1277.4791,-84.4101
25.30,-0.0938,-0.0140,6.1247,-62.5974,195.9888,-1278.7310,-84.4119
25.32,-0.0938,-0.0139,6.1228,-62.5977,196.1113,-1279.9830,-84.4136
25.34,-0.0937,-0.0138,6.1209,-62.5980,196.2337,-1281.2349,-84.4153
25.36,-0.0937,-0.0137,6.1190,-62.5983,196.3561,-1282.4869,-84.4170
25.38,-0.0936,-0.0136,6.1172,-62.5985,196.4784,-1283.7389,-84.4187
25.40,-0.0935,-0.0136,6.1153,-62.5988,196.6007,-1284.9908,-84.4205
25.42,-0.0935,-0.0135,6.1134,-62.5991,196.7230,-1286.2428,-84.4222
25.44,-0.0934,-0.0134,6.1115,-62.5993,196.8452,-1287.4948,-84.4239
25.46,-0.0934,-0.0133,6.1097,-62.5996,196.9674,-1288.7468,-84.4256
25.48,-0.0933,-0.0132,6.1078,-62.5999,197.0896,-1289.9988,-84.4273
25.50,-0.0933,-0.0131,6.1060,-62.6001,197.2117,-1291.2508,-84.4291
25.52,-0.0932,-0.0131,6.1041,-62.6004,197.3338,-1292.5028,-84.4308
25.54,-0.0931,-0.0130,6.1022,-62.6007,197.4558,-1293.7548,-84.4325
25.56,-0.0931,-0.0129,6.1004,-62.6009,197.5778,-1295.0068,-84.4342
25.58,-0.0930,-0.0128,6.0985,-62.6012,197.6998,-1296.2589,-84.4359
25.60,-0.0930,-0.0127,6.0966,-62.6014,197.8217,-1297.5109,-84.4376
25.62,-0.0929,-0.0127,6.0948,-62.6017,197.9436,-1298.7629,-84.4393
25.64,-0.0929,-0.0126,6.0929,-62.6019,198.0655,-1300.0150,-84.4410
25.66,-0.0928,-0.0125,6.0911,-62.6022,198.1873,-1301.2670,-84.4427
25.68,-0.0928,-0.0124,6.0892,-62.6024,198.3091,-1302.5190,-84.4444
25.70,-0.0927,-0.0123,6.0874,-62.6027,198.4308,-1303.7711,-84.4461
25.72,-0.0926,-0.0123,6.0855,-62.6029,198.5526,-1305.0232,-84.4478
25.74,-0.0926,-0.0122,6.0837,-62.6032,198.6742,-1306.2752,-84.4495
25.76,-0.0925,-0.0121,6.0818,-62.6034,198.7959,-1307.5273,-84.4512
25.78,-0.0925,-0.0120,6.0800,-62.6037,198.9175,-1308.7794,-84.4529
25.80,-0.0924,-0.0120,6.0781,-62.6039,199.0390,-1310.0314,-84.4546
25.82,-0.0924,-0.0119,6.0763,-62.6041,199.1606,-1311.2835,-84.4563
25.84,-0.0923,-0.0118,6.0744,-62.6044,199.2820,-1312.5356,-84.4580
25.86,-0.0922,-0.0117,6.0726,-62.6046,199.4035,-1313.7877,-84.4597
25.88,-0.0922,-0.0117,6.0707,-62.6048,199.5249,-1315.0398,-84.4614
25.90,-0.0921,-0.0116,6.0689,-62.6051,199.6463,-1316.2919,-84.4631
25.92,-0.0921,-0.0115,6.0670,-62.6053,199.7676,-1317.5440,-84.4648
25.94,-0.0920,-0.0114,6.0652,-62.6055,199.8889,-1318.7961,-84.4665
25.96,-0.0920,-0.0114,6.0634,-62.6058,200.0102,-1320.0482,-84.4682
25.98,-0.0919,-0.0113,6.0615,-62.6060,200.1314,-1321.3004,-84.4698
26.00,-0.0919,-0.0112,6.0597,-62.6062,200.2526,-1322.5525,-84.4715
26.02,-0.0918,-0.0112,6.0579,-62.6064,200.3738,-1323.8046,-84.4732
26.04,-0.0917,-0.0111,6.0560,-62.6066,200.4949,-1325.0567,-84.4749
26.06,-0.0917,-0.0110,6.0542,-62.6069,200.6160,-1326.3089,-84.4766
26.08,-0.0916,-0.0110,6.0523,-62.6071,200.7370,-1327.5610,-84.4783
26.10,-0.0916,-0.0109,6.0505,-62.6073,200.8580,-1328.8132,-84.4799
26.12,-0.0915,-0.0108,6.0487,-62.6075,200.9790,-1330.0653,-84.4816
26.14,-0.0915,-0.0107,6.0469,-62.6077,201.1000,-1331.3175,-84.4833
26.16,-0.0914,-0.0107,6.0450,-62.6079,201.2209,-1332.5696,-84.4850
26.18,-0.0914,-0.0106,6.0432,-62.6082,201.3417,-1333.8218,-84.4867
26.20,-0.0913,-0.0105,6.0414,-62.6084,201.4625,-1335.0740,-84.4883
26.22,-0.0912,-0.0105,6.0396,-62.6086,201.5833,-1336.3261,-84.4900
26.24,-0.0912,-0.0104,6.0377,-62.6088,201.7041,-1337.5783,-84.4917
26.26,-0.0911,-0.0103,6.0359,-62.6090,201.8248,-1338.8305,-84.4933
26.28,-0.0911,-0.0103,6.0341,-62.6092,201.9455,-1340.0827,-84.4950
26.30,-0.0910,-0.0102,6.0323,-62.6094,202.0661,-1341.3349,-84.4967
26.32,-0.0910,-0.0102,6.0304,-62.6096,202.1867,-1342.5871,-84.4983
26.34,-0.0909,-0.0101,6.0286,-62.6098,202.3073,-1343.8392,-84.5000
26.36,-0.0909,-0.0100,6.0268,-62.6100,202.4279,-1345.0914,-84.5017
26.38,-0.0908,-0.0100,6.0250,-62.6102,202.5484,-1346.3437,-84.5033
26.40,-0.0908,-0.0099,6.0232,-62.6104,202.6688,-1347.5959,-84.5050
26.42,-0.0907,-0.0098,6.0214,-62.6106,202.7892,-1348.8481,-84.5067
26.44,-0.0906,-0.0098,6.0195,-62.6108,202.9096,-1350.1003,-84.5083
26.46,-0.0906,-0.0097,6.0177,-62.6110,203.0300,-1351.3525,-84.5100
26.48,-0.0905,-0.0097,6.0159,-62.6112,203.1503,-1352.6047,-84.5116
26.50,-0.0905,-0.0096,6.0141,-62.6114,203.2706,-1353.8570,-84.5133
26.52,-0.0904,-0.0095,6.0123,-62.6116,203.3908,-1355.1092,-84.5150
26.54,-0.0904,-0.0095,6.0105,-62.6118,203.5110,-1356.3614,-84.5166
26.56,-0.0903,-0.0094,6.0087,-62.6120,203.6312,-1357.6137,-84.5183
26.58,-0.0903,-0.0094,6.0069,-62.6121,203.7514,-1358.8659,-84.5199
26.60,-0.0902,-0.0093,6.0051,-62.6123,203.8715,-1360.1182,-84.5216
26.62,-0.0902,-0.0092,6.0033,-62.6125,203.9915,-1361.3704,-84.5232
26.64,-0.0901,-0.0092,6.0015,-62.6127,204.1116,-1362.6227,-84.5249
26.66,-0.0900,-0.0091,5.9997,-62.6129,204.2315,-1363.8749,-84.5265
26.68,-0.0900,-0.0091,5.9979,-62.6131,204.3515,-1365.1272,-84.5282
26.70,-0.0899,-0.0090,5.9961,-62.6132,204.4714,-1366.3794,-84.5298
26.72,-0.0899,-0.0090,5.9943,-62.6134,204.5913,-1367.6317,-84.5315
26.74,-0.0898,-0.0089,5.9925,-62.6136,204.7112,-1368.8840,-84.5331
26.76,-0.0898,-0.0088,5.9907,-62.6138,204.8310,-1370.1363,-84.5348
26.78,-0.0897,-0.0088,5.9889,-62.6139,204.9508,-1371.3885,-84.5364
26.80,-0.0897,-0.0087,5.9871,-62.6141,205.0705,-1372.6408,-84.5380
26.82,-0.0896,-0.0087,5.9853,-62.6143,205.1902,-1373.8931,-84.5397
26.84,-0.0896,-0.0086,5.9835,-62.6145,205.3099,-1375.1454,-84.5413
26.86,-0.0895,-0.0086,5.9817,-62.6146,205.4295,-1376.3977,-84.5430
26.88,-0.0895,-0.0085,5.9799,-62.6148,205.5491,-1377.6500,-84.5446
26.90,-0.0894,-0.0085,5.9782,-62.6150,205.6687,-1378.9023,-84.5462
26.92,-0.0893,-0.0084,5.9764,-62.6151,205.7882,-1380.1546,-84.5479
26.94,-0.0893,-0.0084,5.9746,-62.6153,205.9077,-1381.4069,-84.5495
26.96,-0.0892,-0.0083,5.9728,-62.6155,206.0271,-1382.6592,-84.5511
26.98,-0.0892,-0.0083,5.9710,-62.6156,206.1466,-1383.9115,-84.5528
27.00,-0.0891,-0.0082,5.9692,-62.6158,206.2659,-1385.1638,-84.5544
27.02,-0.0891,-0.0082,5.9674,-62.6160,206.3853,-1386.4162,-84.5560
27.04,-0.0890,-0.0081,5.9657,-62.6161,206.5046,-1387.6685,-84.5576
27.06,-0.0890,-0.0080,5.9639,-62.6163,206.6239,-1388.9208,-84.5593
27.08,-0.0889,-0.0080,5.9621,-62.6165,206.7431,-1390.1731,-84.5609
27.10,-0.0889,-0.0079,5.9603,-62.6166,206.8623,-1391.4255,-84.5625
27.12,-0.0888,-0.0079,5.9586,-62.6168,206.9815,-1392.6778,-84.5642
27.14,-0.0888,-0.0078,5.9568,-62.6169,207.1006,-1393.9301,-84.5658
27.16,-0.0887,-0.0078,5.9550,-62.6171,207.2197,-1395.1825,-84.5674
27.18,-0.0887,-0.0078,5.9532,-62.6172,207.3388,-1396.4348,-84.5690
27.20,-0.0886,-0.0077,5.9515,-62.6174,207.4578,-1397.6872,-84.5706
27.22,-0.0885,-0.0077,5.9497,-62.6175,207.5768,-1398.9395,-84.5723
27.24,-0.0885,-0.0076,5.9479,-62.6177,207.6958,-1400.1919,-84.5739
27.26,-0.0884,-0.0076,5.9462,-62.6179,207.8147,-1401.4442,-84.5755
27.28,-0.0884,-0.0075,5.9444,-62.6180,207.9336,-1402.6966,-84.5771
27.30,-0.0883,-0.0075,5.9426,-62.6182,208.0525,-1403.9490,-84.5787
27.32,-0.0883,-0.0074,5.9409,-62.6183,208.1713,-1405.2013,-84.5803
27.34,-0.0882,-0.0074,5.9391,-62.6184,208.2901,-1406.4537,-84.5820
27.36,-0.0882,-0.0073,5.9373,-62.6186,208.4088,-1407.7061,-84.5836
27.38,-0.0881,-0.0073,5.9356,-62.6187,208.5275,-1408.9584,-84.5852
27.40,-0.0881,-0.0072,5.9338,-62.6189,208.6462,-1410.2108,-84.5868
27.42,-0.0880,-0.0072,5.9320,-62.6190,208.7648,-1411.4632,-84.5884
27.44,-0.0880,-0.0071,5.9303,-62.6192,208.8834,-1412.7156,-84.5900
27.46,-0.0879,-0.0071,5.9285,-62.6193,209.0020,-1413.9680,-84.5916
27.48,-0.0879,-0.0071,5.9268,-62.6195,209.1205,-1415.2204,-84.5932
27.50,-0.0878,-0.0070,5.9250,-62.6196,209.2390,-1416.4727,-84.5948
27.52,-0.0878,-0.0070,5.9233,-62.6197,209.3575,-1417.7251,-84.5964
27.54,-0.0877,-0.0069,5.9215,-62.6199,209.4759,-1418.9775,-84.5980
27.56,-0.0877,-0.0069,5.9197,-62.6200,209.5943,-1420.2299,-84.5996
27.58,-0.0876,-0.0068,5.9180,-62.6201,209.7127,-1421.4823,-84.6012
27.60,-0.0876,-0.0068,5.9162,-62.6203,209.8310,-1422.7347,-84.6028
27.62,-0.0875,-0.0068,5.9145,-62.6204,209.9493,-1423.9872,-84.6044
27.64,-0.0875,-0.0067,5.9127,-62.6205,210.0676,-1425.2396,-84.6060
27.66,-0.0874,-0.0067,5.9110,-62.6207,210.1858,-1426.4920,-84.6076
27.68,-0.0873,-0.0066,5.9092,-62.6208,210.3040,-1427.7444,-84.6092
27.70,-0.0873,-0.0066,5.9075,-62.6209,210.4221,-1428.9968,-84.6108
27.72,-0.0872,-0.0065,5.9058,-62.6211,210.5402,-1430.2492,-84.6124
27.74,-0.0872,-0.0065,5.9040,-62.6212,210.6583,-1431.5017,-84.6140
27.76,-0.0871,-0.0065,5.9023,-62.6213,210.7764,-1432.7541,-84.6156
27.78,-0.0871,-0.0064,5.9005,-62.6215,210.8944,-1434.0065,-84.6172
27.80,-0.0870,-0.0064,5.8988,-62.6216,211.0123,-1435.2589,-84.6188
27.82,-0.0870,-0.0063,5.8970,-62.6217,211.1303,-1436.5114,-84.6204
27.84,-0.0869,-0.0063,5.8953,-62.6218,211.2482,-1437.7638,-84.6219
27.86,-0.0869,-0.0063,5.8936,-62.6220,211.3661,-1439.0163,-84.6235
27.88,-0.0868,-0.0062,5.8918,-62.6221,211.4839,-1440.2687,-84.6251
27.90,-0.0868,-0.0062,5.8901,-62.6222,211.6017,-1441.5211,-84.6267
27.92,-0.0867,-0.0061,5.8884,-62.6223,211.7195,-1442.7736,-84.6283
27.94,-0.0867,-0.0061,5.8866,-62.6225,211.8372,-1444.0260,-84.6299
27.96,-0.0866,-0.0061,5.8849,-62.6226,211.9549,-1445.2785,-84.6315
27.98,-0.0866,-0.0060,5.8832,-62.6227,212.0726,-1446.5309,-84.6330
28.00,-0.0865,-0.0060,5.8814,-62.6228,212.1902,-1447.7834,-84.6346
28.02,-0.0865,-0.0060,5.8797,-62.6229,212.3078,-1449.0359,-84.6362
28.04,-0.0864,-0.0059,5.8780,-62.6231,212.4253,-1450.2883,-84.6378
28.06,-0.0864,-0.0059,5.8762,-62.6232,212.5429,-1451.5408,-84.6393
28.08,-0.0863,-0.0058,5.8745,-62.6233,212.6604,-1452.7933,-84.6409
28.10,-0.0863,-0.0058,5.8728,-62.6234,212.7778,-1454.0457,-84.6425
28.12,-0.0862,-0.0058,5.8711,-62.6235,212.8952,-1455.2982,-84.6441
28.14,-0.0862,-0.0057,5.8693,-62.6236,213.0126,-1456.5507,-84.6456
28.16,-0.0861,-0.0057,5.8676,-62.6238,213.1300,-1457.8031,-84.6472
28.18,-0.0861,-0.0057,5.8659,-62.6239,213.2473,-1459.0556,-84.6488
28.20,-0.0860,-0.0056,5.8642,-62.6240,213.3646,-1460.3081,-84.6504
28.22,-0.0860,-0.0056,5.8625,-62.6241,213.4818,-1461.5606,-84.6519
28.24,-0.0859,-0.0056,5.8607,-62.6242,213.5990,-1462.8131,-84.6535
28.26,-0.0859,-0.0055,5.8590,-62.6243,213.7162,-1464.0655,-84.6551
28.28,-0.0858,-0.0055,5.8573,-62.6244,213.8334,-1465.3180,-84.6566
28.30,-0.0858,-0.0055,5.8556,-62.6245,213.9505,-1466.5705,-84.6582
28.32,-0.0857,-0.0054,5.8539,-62.6246,214.0676,-1467.8230,-84.6598
28.34,-0.0857,-0.0054,5.8522,-62.6248,214.1846,-1469.0755,-84.6613
28.36,-0.0856,-0.0054,5.8505,-62.6249,214.3016,-1470.3280,-84.6629
28.38,-0.0856,-0.0053,5.8487,-62.6250,214.4186,-1471.5805,-84.6644
28.40,-0.0855,-0.0053,5.8470,-62.6251,214.5355,-1472.8330,-84.6660
28.42,-0.0855,-0.0053,5.8453,-62.6252,214.6524,-1474.0855,-84.6676
28.44,-0.0854,-0.0052,5.8436,-62.6253,214.7693,-1475.3380,-84.6691
28.46,-0.0854,-0.0052,5.8419,-62.6254,214.8861,-1476.5905,-84.6707
28.48,-0.0853,-0.0052,5.8402,-62.6255,215.0029,-1477.8430,-84.6722
28.50,-0.0853,-0.0051,5.8385,-62.6256,215.1197,-1479.0956,-84.6738
28.52,-0.0852,-0.0051,5.8368,-62.6257,215.2364,-1480.3481,-84.6753
28.54,-0.0852,-0.0051,5.8351,-62.6258,215.3532,-1481.6006,-84.6769
28.56,-0.0851,-0.0050,5.8334,-62.6259,215.4698,-1482.8531,-84.6784
28.58,-0.0851,-0.0050,5.8317,-62.6260,215.5865,-1484.1056,-84.6800
28.60,-0.0850,-0.0050,5.8300,-62.6261,215.7031,-1485.3581,-84.6816
28.62,-0.0850,-0.0049,5.8283,-62.6262,215.8196,-1486.6107,-84.6831
28.64,-0.0849,-0.0049,5.8266,-62.6263,215.9361,-1487.8632,-84.6846
28.66,-0.0849,-0.0049,5.8249,-62.6264,216.0526,-1489.1157,-84.6862
28.68,-0.0848,-0.0048,5.8232,-62.6265,216.1691,-1490.3682,-84.6877
28.70,-0.0848,-0.0048,5.8215,-62.6266,216.2855,-1491.6208,-84.6893
28.72,-0.0847,-0.0048,5.8198,-62.6267,216.4019,-1492.8733,-84.6908
28.74,-0.0847,-0.0047,5.8181,-62.6268,216.5183,-1494.1258,-84.6924
28.76,-0.0846,-0.0047,5.8164,-62.6269,216.6346,-1495.3784,-84.6939
28.78,-0.0846,-0.0047,5.8147,-62.6270,216.7509,-1496.6309,-84.6955
28.80,-0.0845,-0.0047,5.8130,-62.6271,216.8672,-1497.8835,-84.6970
28.82,-0.0845,-0.0046,5.8113,-62.6271,216.9834,-1499.1360,-84.6985
28.84,-0.0844,-0.0046,5.8097,-62.6272,217.0996,-1500.3886,-84.7001
28.86,-0.0844,-0.0046,5.8080,-62.6273,217.2158,-1501.6411,-84.7016
28.88,-0.0843,-0.0045,5.8063,-62.6274,217.3319,-1502.8936,-84.7032
28.90,-0.0843,-0.0045,5.8046,-62.6275,217.4480,-1504.1462,-84.7047
28.92,-0.0842,-0.0045,5.8029,-62.6276,217.5640,-1505.3988,-84.7062
28.94,-0.0842,-0.0045,5.8012,-62.6277,217.6801,-1506.6513,-84.7078
28.96,-0.0841,-0.0044,5.7995,-62.6278,217.7961,-1507.9039,-84.7093
28.98,-0.0841,-0.0044,5.7979,-62.6279,217.9120,-1509.1564,-84.7108
29.00,-0.0840,-0.0044,5.7962,-62.6280,218.0279,-1510.4090,-84.7124
29.02,-0.0840,-0.0043,5.7945,-62.6280,218.1438,-1511.6615,-84.7139
29.04,-0.0839,-0.0043,5.7928,-62.6281,218.2597,-1512.9141,-84.7154
29.06,-0.0839,-0.0043,5.7911,-62.6282,218.3755,-1514.1667,-84.7170
29.08,-0.0838,-0.0043,5.7895,-62.6283,218.4913,-1515.4192,-84.7185
29.10,-0.0838,-0.0042,5.7878,-62.6284,218.6070,-1516.6718,-84.7200
29.12,-0.0837,-0.0042,5.7861,-62.6285,218.7228,-1517.9244,-84.7215
29.14,-0.0837,-0.0042,5.7844,-62.6285,218.8385,-1519.1769,-84.7231
29.16,-0.0836,-0.0042,5.7828,-62.6286,218.9541,-1520.4295,-84.7246
29.18,-0.0836,-0.0041,5.7811,-62.6287,219.0697,-1521.6821,-84.7261
29.20,-0.0836,-0.0041,5.7794,-62.6288,219.1853,-1522.9347,-84.7276
29.22,-0.0835,-0.0041,5.7778,-62.6289,219.3009,-1524.1872,-84.7292
29.24,-0.0835,-0.0041,5.7761,-62.6290,219.4164,-1525.4398,-84.7307
29.26,-0.0834,-0.0040,5.7744,-62.6290,219.5319,-1526.6924,-84.7322
29.28,-0.0834,-0.0040,5.7728,-62.6291,219.6473,-1527.9450,-84.7337
29.30,-0.0833,-0.0040,5.7711,-62.6292,219.7628,-1529.1976,-84.7352
29.32,-0.0833,-0.0040,5.7694,-62.6293,219.8782,-1530.4502,-84.7368
29.34,-0.0832,-0.0039,5.7678,-62.6294,219.9935,-1531.7027,-84.7383
29.36,-0.0832,-0.0039,5.7661,-62.6294,220.1088,-1532.9553,-84.7398
29.38,-0.0831,-0.0039,5.7644,-62.6295,220.2241,-1534.2079,-84.7413
29.40,-0.0831,-0.0039,5.7628,-62.6296,220.3394,-1535.4605,-84.7428
29.42,-0.0830,-0.0038,5.7611,-62.6297,220.4546,-1536.7131,-84.7443
29.44,-0.0830,-0.0038,5.7595,-62.6297,220.5698,-1537.9657,-84.7458
29.46,-0.0829,-0.0038,5.7578,-62.6298,220.6849,-1539.2183,-84.7473
29.48,-0.0829,-0.0038,5.7561,-62.6299,220.8001,-1540.4709,-84.7489
29.50,-0.0828,-0.0037,5.7545,-62.6300,220.9152,-1541.7235,-84.7504
29.52,-0.0828,-0.0037,5.7528,-62.6300,221.0302,-1542.9761,-84.7519
29.54,-0.0827,-0.0037,5.7512,-62.6301,221.1452,-1544.2287,-84.7534
29.56,-0.0827,-0.0037,5.7495,-62.6302,221.2602,-1545.4813,-84.7549
29.58,-0.0826,-0.0036,5.7479,-62.6303,221.3752,-1546.7339,-84.7564
29.60,-0.0826,-0.0036,5.7462,-62.6303,221.4901,-1547.9865,-84.7579
29.62,-0.0825,-0.0036,5.7446,-62.6304,221.6050,-1549.2391,-84.7594
29.64,-0.0825,-0.0036,5.7429,-62.6305,221.7199,-1550.4917,-84.7609
29.66,-0.0825,-0.0036,5.7413,-62.6306,221.8347,-1551.7443,-84.7624
29.68,-0.0824,-0.0035,5.7396,-62.6306,221.9495,-1552.9970,-84.7639
29.70,-0.0824,-0.0035,5.7380,-62.6307,222.0642,-1554.2496,-84.7654
29.72,-0.0823,-0.0035,5.7363,-62.6308,222.1790,-1555.5022,-84.7669
29.74,-0.0823,-0.0035,5.7347,-62.6308,222.2937,-1556.7548,-84.7684
29.76,-0.0822,-0.0034,5.7330,-62.6309,222.4083,-1558.0074,-84.7699
29.78,-0.0822,-0.0034,5.7314,-62.6310,222.5229,-1559.2600,-84.7714
29.80,-0.0821,-0.0034,5.7297,-62.6310,222.6375,-1560.5127,-84.7729
29.82,-0.0821,-0.0034,5.7281,-62.6311,222.7521,-1561.7653,-84.7744
29.84,-0.0820,-0.0034,5.7265,-62.6312,222.8666,-1563.0179,-84.7759
29.86,-0.0820,-0.0033,5.7248,-62.6312,222.9811,-1564.2705,-84.7774
29.88,-0.0819,-0.0033,5.7232,-62.6313,223.0956,-1565.5232,-84.7789
29.90,-0.0819,-0.0033,5.7215,-62.6314,223.2100,-1566.7758,-84.7804
29.92,-0.0818,-0.0033,5.7199,-62.6314,223.3244,-1568.0284,-84.7819
29.94,-0.0818,-0.0033,5.7183,-62.6315,223.4388,-1569.2810,-84.7833
29.96,-0.0817,-0.0032,5.7166,-62.6316,223.5531,-1570.5337,-84.7848
29.98,-0.0817,-0.0032,5.7150,-62.6316,223.6674,-1571.7863,-84.7863
30.00,-0.0817,-0.0032,5.7134,-62.6317,223.7817,-1573.0389,-84.7878
30.02,-0.0816,-0.0032,5.7117,-62.6318,223.8959,-1574.2916,-84.7893
30.04,-0.0816,-0.0032,5.7101,-62.6318,224.0101,-1575.5442,-84.7908
30.06,-0.0815,-0.0031,5.7085,-62.6319,224.1243,-1576.7968,-84.7923
30.08,-0.0815,-0.0031,5.7068,-62.6319,224.2384,-1578.0495,-84.7937
30.10,-0.0814,-0.0031,5.7052,-62.6320,224.3525,-1579.3021,-84.7952
30.12,-0.0814,-0.0031,5.7036,-62.6321,224.4666,-1580.5548,-84.7967
30.14,-0.0813,-0.0031,5.7020,-62.6321,224.5806,-1581.8074,-84.7982
30.16,-0.0813,-0.0030,5.7003,-62.6322,224.6947,-1583.0601,-84.7997
30.18,-0.0812,-0.0030,5.6987,-62.6323,224.8086,-1584.3127,-84.8011
30.20,-0.0812,-0.0030,5.6971,-62.6323,224.9226,-1585.5653,-84.8026
30.22,-0.0811,-0.0030,5.6955,-62.6324,225.0365,-1586.8180,-84.8041
30.24,-0.0811,-0.0030,5.6938,-62.6324,225.1504,-1588.0706,-84.8056
30.26,-0.0810,-0.0029,5.6922,-62.6325,225.2642,-1589.3233,-84.8071
30.28,-0.0810,-0.0029,5.6906,-62.6326,225.3780,-1590.5759,-84.8085
30.30,-0.0810,-0.0029,5.6890,-62.6326,225.4918,-1591.8286,-84.8100
30.32,-0.0809,-0.0029,5.6874,-62.6327,225.6055,-1593.0812,-84.8115
30.34,-0.0809,-0.0029,5.6858,-62.6327,225.7193,-1594.3339,-84.8129
30.36,-0.0808,-0.0029,5.6841,-62.6328,225.8329,-1595.5866,-84.8144
30.38,-0.0808,-0.0028,5.6825,-62.6328,225.9466,-1596.8392,-84.8159
30.40,-0.0807,-0.0028,5.6809,-62.6329,226.0602,-1598.0919,-84.8174
30.42,-0.0807,-0.0028,5.6793,-62.6329,226.1738,-1599.3445,-84.8188
30.44,-0.0806,-0.0028,5.6777,-62.6330,226.2873,-1600.5972,-84.8203
30.46,-0.0806,-0.0028,5.6761,-62.6331,226.4009,-1601.8499,-84.8218
30.48,-0.0805,-0.0027,5.6745,-62.6331,226.5144,-1603.1025,-84.8232
30.50,-0.0805,-0.0027,5.6728,-62.6332,226.6278,-1604.3552,-84.8247
30.52,-0.0805,-0.0027,5.6712,-62.6332,226.7412,-1605.6078,-84.8262
30.54,-0.0804,-0.0027,5.6696,-62.6333,226.8546,-1606.8605,-84.8276
30.56,-0.0804,-0.0027,5.6680,-62.6333,226.9680,-1608.1132,-84.8291
30.58,-0.0803,-0.0027,5.6664,-62.6334,227.0813,-1609.3658,-84.8305
30.60,-0.0803,-0.0026,5.6648,-62.6334,227.1946,-1610.6185,-84.8320
30.62,-0.0802,-0.0026,5.6632,-62.6335,227.3079,-1611.8712,-84.8335
30.64,-0.0802,-0.0026,5.6616,-62.6335,227.4211,-1613.1239,-84.8349
30.66,-0.0801,-0.0026,5.6600,-62.6336,227.5343,-1614.3765,-84.8364
30.68,-0.0801,-0.0026,5.6584,-62.6336,227.6475,-1615.6292,-84.8378
30.70,-0.0800,-0.0026,5.6568,-62.6337,227.7606,-1616.8819,-84.8393
30.72,-0.0800,-0.0025,5.6552,-62.6337,227.8737,-1618.1345,-84.8408
30.74,-0.0800,-0.0025,5.6536,-62.6338,227.9868,-1619.3872,-84.8422
30.76,-0.0799,-0.0025,5.6520,-62.6339,228.0998,-1620.6399,-84.8437
30.78,-0.0799,-0.0025,5.6504,-62.6339,228.2128,-1621.8926,-84.8451
30.80,-0.0798,-0.0025,5.6488,-62.6340,228.3258,-1623.1453,-84.8466
30.82,-0.0798,-0.0025,5.6472,-62.6340,228.4388,-1624.3979,-84.8480
30.84,-0.0797,-0.0025,5.6456,-62.6340,228.5517,-1625.6506,-84.8495
30.86,-0.0797,-0.0024,5.6440,-62.6341,228.6646,-1626.9033,-84.8509
30.88,-0.0796,-0.0024,5.6424,-62.6341,228.7774,-1628.1560,-84.8524
30.90,-0.0796,-0.0024,5.6408,-62.6342,228.8902,-1629.4087,-84.8538
30.92,-0.0795,-0.0024,5.6392,-62.6342,229.0030,-1630.6613,-84.8553
30.94,-0.0795,-0.0024,5.6377,-62.6343,229.1158,-1631.9140,-84.8567
30.96,-0.0795,-0.0024,5.6361,-62.6343,229.2285,-1633.1667,-84.8582
30.98,-0.0794,-0.0023,5.6345,-62.6344,229.3412,-1634.4194,-84.8596
31.00,-0.0794,-0.0023,5.6329,-62.6344,229.4538,-1635.6721,-84.8611
31.02,-0.0793,-0.0023,5.6313,-62.6345,229.5664,-1636.9248,-84.8625
31.04,-0.0793,-0.0023,5.6297,-62.6345,229.6790,-1638.1775,-84.8639
31.06,-0.0792,-0.0023,5.6281,-62.6346,229.7916,-1639.4302,-84.8654
31.08,-0.0792,-0.0023,5.6266,-62.6346,229.9041,-1640.6829,-84.8668
31.10,-0.0791,-0.0023,5.6250,-62.6347,230.0166,-1641.9356,-84.8683
31.12,-0.0791,-0.0022,5.6234,-62.6347,230.1291,-1643.1882,-84.8697
31.14,-0.0791,-0.0022,5.6218,-62.6347,230.2415,-1644.4409,-84.8711
31.16,-0.0790,-0.0022,5.6202,-62.6348,230.3539,-1645.6936,-84.8726
31.18,-0.0790,-0.0022,5.6186,-62.6348,230.4663,-1646.9463,-84.8740
31.20,-0.0789,-0.0022,5.6171,-62.6349,230.5787,-1648.1990,-84.8754
31.22,-0.0789,-0.0022,5.6155,-62.6349,230.6910,-1649.4517,-84.8769
31.24,-0.0788,-0.0022,5.6139,-62.6350,230.8032,-1650.7044,-84.8783
31.26,-0.0788,-0.0022,5.6123,-62.6350,230.9155,-1651.9571,-84.8798
31.28,-0.0787,-0.0021,5.6108,-62.6351,231.0277,-1653.2098,-84.8812
31.30,-0.0787,-0.0021,5.6092,-62.6351,231.1399,-1654.4625,-84.8826
31.32,-0.0787,-0.0021,5.6076,-62.6351,231.2520,-1655.7152,-84.8840
31.34,-0.0786,-0.0021,5.6060,-62.6352,231.3642,-1656.9679,-84.8855
31.36,-0.0786,-0.0021,5.6045,-62.6352,231.4763,-1658.2206,-84.8869
31.38,-0.0785,-0.0021,5.6029,-62.6353,231.5883,-1659.4734,-84.8883
31.40,-0.0785,-0.0021,5.6013,-62.6353,231.7003,-1660.7261,-84.8898
31.42,-0.0784,-0.0020,5.5998,-62.6353,231.8123,-1661.9788,-84.8912
31.44,-0.0784,-0.0020,5.5982,-62.6354,231.9243,-1663.2315,-84.8926
31.46,-0.0783,-0.0020,5.5966,-62.6354,232.0362,-1664.4842,-84.8940
31.48,-0.0783,-0.0020,5.5951,-62.6355,232.1481,-1665.7369,-84.8955
31.50,-0.0783,-0.0020,5.5935,-62.6355,232.2600,-1666.9896,-84.8969
31.52,-0.0782,-0.0020,5.5919,-62.6355,232.3718,-1668.2423,-84.8983
31.54,-0.0782,-0.0020,5.5904,-62.6356,232.4836,-1669.4950,-84.8997
31.56,-0.0781,-0.0020,5.5888,-62.6356,232.5954,-1670.7477,-84.9012
31.58,-0.0781,-0.0019,5.5872,-62.6357,232.7072,-1672.0004,-84.9026
31.60,-0.0780,-0.0019,5.5857,-62.6357,232.8189,-1673.2532,-84.9040
31.62,-0.0780,-0.0019,5.5841,-62.6357,232.9306,-1674.5059,-84.9054
31.64,-0.0780,-0.0019,5.5826,-62.6358,233.0422,-1675.7586,-84.9068
31.66,-0.0779,-0.0019,5.5810,-62.6358,233.1538,-1677.0113,-84.9083
31.68,-0.0779,-0.0019,5.5794,-62.6359,233.2654,-1678.2640,-84.9097
31.70,-0.0778,-0.0019,5.5779,-62.6359,233.3770,-1679.5167,-84.9111
31.72,-0.0778,-0.0019,5.5763,-62.6359,233.4885,-1680.7695,-84.9125
31.74,-0.0777,-0.0019,5.5748,-62.6360,233.6000,-1682.0222,-84.9139
31.76,-0.0777,-0.0018,5.5732,-62.6360,233.7115,-1683.2749,-84.9153
31.78,-0.0777,-0.0018,5.5717,-62.6360,233.8229,-1684.5276,-84.9167
31.80,-0.0776,-0.0018,5.5701,-62.6361,233.9343,-1685.7803,-84.9181
31.82,-0.0776,-0.0018,5.5686,-62.6361,234.0457,-1687.0331,-84.9196
31.84,-0.0775,-0.0018,5.5670,-62.6361,234.1570,-1688.2858,-84.9210
31.86,-0.0775,-0.0018,5.5655,-62.6362,234.2683,-1689.5385,-84.9224
31.88,-0.0774,-0.0018,5.5639,-62.6362,234.3796,-1690.7912,-84.9238
31.90,-0.0774,-0.0018,5.5624,-62.6363,234.4909,-1692.0440,-84.9252
31.92,-0.0774,-0.0017,5.5608,-62.6363,234.6021,-1693.2967,-84.9266
31.94,-0.0773,-0.0017,5.5593,-62.6363,234.7133,-1694.5494,-84.9280
31.96,-0.0773,-0.0017,5.5577,-62.6364,234.8244,-1695.8021,-84.9294
31.98,-0.0772,-0.0017,5.5562,-62.6364,234.9355,-1697.0549,-84.9308
32.00,-0.0772,-0.0017,5.5546,-62.6364,235.0466,-1698.3076,-84.9322
32.02,-0.0771,-0.0017,5.5531,-62.6365,235.1577,-1699.5603,-84.9336
32.04,-0.0771,-0.0017,5.5516,-62.6365,235.2687,-1700.8131,-84.9350
32.06,-0.0770,-0.0017,5.5500,-62.6365,235.3797,-1702.0658,-84.9364
32.08,-0.0770,-0.0017,5.5485,-62.6366,235.4907,-1703.3185,-84.9378
32.10,-0.0770,-0.0017,5.5469,-62.6366,235.6016,-1704.5713,-84.9392
32.12,-0.0769,-0.0016,5.5454,-62.6366,235.7125,-1705.8240,-84.9406
32.14,-0.0769,-0.0016,5.5439,-62.6367,235.8234,-1707.0767,-84.9420
32.16,-0.0768,-0.0016,5.5423,-62.6367,235.9343,-1708.3295,-84.9434
32.18,-0.0768,-0.0016,5.5408,-62.6367,236.0451,-1709.5822,-84.9448
32.20,-0.0768,-0.0016,5.5393,-62.6368,236.1559,-1710.8349,-84.9462
32.22,-0.0767,-0.0016,5.5377,-62.6368,236.2666,-1712.0877,-84.9476
32.24,-0.0767,-0.0016,5.5362,-62.6368,236.3773,-1713.3404,-84.9490
32.26,-0.0766,-0.0016,5.5347,-62.6369,236.4880,-1714.5931,-84.9504
32.28,-0.0766,-0.0016,5.5331,-62.6369,236.5987,-1715.8459,-84.9518
32.30,-0.0765,-0.0016,5.5316,-62.6369,236.7093,-1717.0986,-84.9532
32.32,-0.0765,-0.0015,5.5301,-62.6369,236.8199,-1718.3513,-84.9546
32.34,-0.0765,-0.0015,5.5285,-62.6370,236.9305,-1719.6041,-84.9560
32.36,-0.0764,-0.0015,5.5270,-62.6370,237.0410,-1720.8568,-84.9574
32.38,-0.0764,-0.0015,5.5255,-62.6370,237.1516,-1722.1096,-84.9587
32.40,-0.0763,-0.0015,5.5240,-62.6371,237.2620,-1723.3623,-84.9601
32.42,-0.0763,-0.0015,5.5224,-62.6371,237.3725,-1724.6150,-84.9615
32.44,-0.0762,-0.0015,5.5209,-62.6371,237.4829,-1725.8678,-84.9629
32.46,-0.0762,-0.0015,5.5194,-62.6372,237.5933,-1727.1205,-84.9643
32.48,-0.0762,-0.0015,5.5179,-62.6372,237.7036,-1728.3733,-84.9657
32.50,-0.0761,-0.0015,5.5163,-62.6372,237.8140,-1729.6260,-84.9671
32.52,-0.0761,-0.0014,5.5148,-62.6372,237.9243,-1730.8788,-84.9684
32.54,-0.0760,-0.0014,5.5133,-62.6373,238.0345,-1732.1315,-84.9698
32.56,-0.0760,-0.0014,5.5118,-62.6373,238.1448,-1733.3843,-84.9712
32.58,-0.0759,-0.0014,5.5103,-62.6373,238.2550,-1734.6370,-84.9726
32.60,-0.0759,-0.0014,5.5087,-62.6374,238.3651,-1735.8898,-84.9740
32.62,-0.0759,-0.0014,5.5072,-62.6374,238.4753,-1737.1425,-84.9753
32.64,-0.0758,-0.0014,5.5057,-62.6374,238.5854,-1738.3952,-84.9767
32.66,-0.0758,-0.0014,5.5042,-62.6374,238.6955,-1739.6480,-84.9781
32.68,-0.0757,-0.0014,5.5027,-62.6375,238.8055,-1740.9007,-84.9795
32.70,-0.0757,-0.0014,5.5012,-62.6375,238.9156,-1742.1535,-84.9809
32.72,-0.0757,-0.0014,5.4996,-62.6375,239.0256,-1743.4062,-84.9822
32.74,-0.0756,-0.0014,5.4981,-62.6376,239.1355,-1744.6590,-84.9836
32.76,-0.0756,-0.0013,5.4966,-62.6376,239.2455,-1745.9118,-84.9850
32.78,-0.0755,-0.0013,5.4951,-62.6376,239.3554,-1747.1645,-84.9864
32.80,-0.0755,-0.0013,5.4936,-62.6376,239.4652,-1748.4173,-84.9877
32.82,-0.0754,-0.0013,5.4921,-62.6377,239.5751,-1749.6700,-84.9891
32.84,-0.0754,-0.0013,5.4906,-62.6377,239.6849,-1750.9228,-84.9905
32.86,-0.0754,-0.0013,5.4891,-62.6377,239.7947,-1752.1755,-84.9918
32.88,-0.0753,-0.0013,5.4876,-62.6377,239.9044,-1753.4283,-84.9932
32.90,-0.0753,-0.0013,5.4861,-62.6378,240.0141,-1754.6810,-84.9946
32.92,-0.0752,-0.0013,5.4846,-62.6378,240.1238,-1755.9338,-84.9959
32.94,-0.0752,-0.0013,5.4831,-62.6378,240.2335,-1757.1865,-84.9973
32.96,-0.0752,-0.0013,5.4816,-62.6378,240.3431,-1758.4393,-84.9987
32.98,-0.0751,-0.0013,5.4801,-62.6379,240.4527,-1759.6921,-85.0000
33.00,-0.0751,-0.0012,5.4785,-62.6379,240.5623,-1760.9448,-85.0014
33.02,-0.0750,-0.0012,5.4770,-62.6379,240.6718,-1762.1976,-85.0028
33.04,-0.0750,-0.0012,5.4755,-62.6379,240.7813,-1763.4503,-85.0041
33.06,-0.0750,-0.0012,5.4740,-62.6380,240.8908,-1764.7031,-85.0055
33.08,-0.0749,-0.0012,5.4726,-62.6380,241.0003,-1765.9558,-85.0069
33.10,-0.0749,-0.0012,5.4711,-62.6380,241.1097,-1767.2086,-85.0082
33.12,-0.0748,-0.0012,5.4696,-62.6380,241.2191,-1768.4614,-85.0096
33.14,-0.0748,-0.0012,5.4681,-62.6381,241.3284,-1769.7141,-85.0109
33.16,-0.0747,-0.0012,5.4666,-62.6381,241.4378,-1770.9669,-85.0123
33.18,-0.0747,-0.0012,5.4651,-62.6381,241.5471,-1772.2197,-85.0137
33.20,-0.0747,-0.0012,5.4636,-62.6381,241.6564,-1773.4724,-85.0150
33.22,-0.0746,-0.0012,5.4621,-62.6382,241.7656,-1774.7252,-85.0164
33.24,-0.0746,-0.0012,5.4606,-62.6382,241.8748,-1775.9779,-85.0177
33.26,-0.0745,-0.0011,5.4591,-62.6382,241.9840,-1777.2307,-85.0191
33.28,-0.0745,-0.0011,5.4576,-62.6382,242.0931,-1778.4835,-85.0204
33.30,-0.0745,-0.0011,5.4561,-62.6382,242.2023,-1779.7362,-85.0218
33.32,-0.0744,-0.0011,5.4546,-62.6383,242.3114,-1780.9890,-85.0232
33.34,-0.0744,-0.0011,5.4531,-62.6383,242.4204,-1782.2418,-85.0245
33.36,-0.0743,-0.0011,5.4517,-62.6383,242.5295,-1783.4945,-85.0259
33.38,-0.0743,-0.0011,5.4502,-62.6383,242.6385,-1784.7473,-85.0272
33.40,-0.0743,-0.0011,5.4487,-62.6384,242.7474,-1786.0001,-85.0286
33.42,-0.0742,-0.0011,5.4472,-62.6384,242.8564,-1787.2528,-85.0299
33.44,-0.0742,-0.0011,5.4457,-62.6384,242.9653,-1788.5056,-85.0313
33.46,-0.0741,-0.0011,5.4442,-62.6384,243.0742,-1789.7584,-85.0326
33.48,-0.0741,-0.0011,5.4428,-62.6384,243.1830,-1791.0111,-85.0339
33.50,-0.0741,-0.0011,5.4413,-62.6385,243.2919,-1792.2639,-85.0353
33.52,-0.0740,-0.0011,5.4398,-62.6385,243.4006,-1793.5167,-85.0366
33.54,-0.0740,-0.0011,5.4383,-62.6385,243.5094,-1794.7694,-85.0380
33.56,-0.0739,-0.0010,5.4368,-62.6385,243.6182,-1796.0222,-85.0393
33.58,-0.0739,-0.0010,5.4354,-62.6385,243.7269,-1797.2750,-85.0407
33.60,-0.0739,-0.0010,5.4339,-62.6386,243.8355,-1798.5278,-85.0420
33.62,-0.0738,-0.0010,5.4324,-62.6386,243.9442,-1799.7805,-85.0434
33.64,-0.0738,-0.0010,5.4309,-62.6386,244.0528,-1801.0333,-85.0447
33.66,-0.0737,-0.0010,5.4295,-62.6386,244.1614,-1802.2861,-85.0460
33.68,-0.0737,-0.0010,5.4280,-62.6386,244.2700,-1803.5388,-85.0474
33.70,-0.0737,-0.0010,5.4265,-62.6387,244.3785,-1804.7916,-85.0487
33.72,-0.0736,-0.0010,5.4250,-62.6387,244.4870,-1806.0444,-85.0501
33.74,-0.0736,-0.0010,5.4236,-62.6387,244.5955,-1807.2972,-85.0514
33.76,-0.0735,-0.0010,5.4221,-62.6387,244.7039,-1808.5499,-85.0527
33.78,-0.0735,-0.0010,5.4206,-62.6387,244.8123,-1809.8027,-85.0541
33.80,-0.0735,-0.0010,5.4192,-62.6388,244.9207,-1811.0555,-85.0554
33.82,-0.0734,-0.0010,5.4177,-62.6388,245.0290,-1812.3083,-85.0567
33.84,-0.0734,-0.0010,5.4162,-62.6388,245.1374,-1813.5610,-85.0581
33.86,-0.0733,-0.0010,5.4148,-62.6388,245.2457,-1814.8138,-85.0594
33.88,-0.0733,-0.0009,5.4133,-62.6388,245.3539,-1816.0666,-85.0607
33.90,-0.0733,-0.0009,5.4118,-62.6389,245.4622,-1817.3194,-85.0621
33.92,-0.0732,-0.0009,5.4104,-62.6389,245.5704,-1818.5722,-85.0634
33.94,-0.0732,-0.0009,5.4089,-62.6389,245.6786,-1819.8249,-85.0647
33.96,-0.0731,-0.0009,5.4074,-62.6389,245.7867,-1821.0777,-85.0661
33.98,-0.0731,-0.0009,5.4060,-62.6389,245.8948,-1822.3305,-85.0674
34.00,-0.0731,-0.0009,5.4045,-62.6390,246.0029,-1823.5833,-85.0687
34.02,-0.0730,-0.0009,5.4030,-62.6390,246.1110,-1824.8360,-85.0700
34.04,-0.0730,-0.0009,5.4016,-62.6390,246.2190,-1826.0888,-85.0714
34.06,-0.0729,-0.0009,5.4001,-62.6390,246.3270,-1827.3416,-85.0727
34.08,-0.0729,-0.0009,5.3987,-62.6390,246.4350,-1828.5944,-85.0740
34.10,-0.0729,-0.0009,5.3972,-62.6390,246.5429,-1829.8472,-85.0753
34.12,-0.0728,-0.0009,5.3958,-62.6391,246.6508,-1831.0999,-85.0767
34.14,-0.0728,-0.0009,5.3943,-62.6391,246.7587,-1832.3527,-85.0780
34.16,-0.0727,-0.0009,5.3928,-62.6391,246.8666,-1833.6055,-85.0793
34.18,-0.0727,-0.0009,5.3914,-62.6391,246.9744,-1834.8583,-85.0806
34.20,-0.0727,-0.0009,5.3899,-62.6391,247.0822,-1836.1111,-85.0820
34.22,-0.0726,-0.0008,5.3885,-62.6391,247.1900,-1837.3639,-85.0833
34.24,-0.0726,-0.0008,5.3870,-62.6392,247.2977,-1838.6166,-85.0846
34.26,-0.0726,-0.0008,5.3856,-62.6392,247.4054,-1839.8694,-85.0859
34.28,-0.0725,-0.0008,5.3841,-62.6392,247.5131,-1841.1222,-85.0872
34.30,-0.0725,-0.0008,5.3827,-62.6392,247.6208,-1842.3750,-85.0886
34.32,-0.0724,-0.0008,5.3812,-62.6392,247.7284,-1843.6278,-85.0899
34.34,-0.0724,-0.0008,5.3798,-62.6392,247.8360,-1844.8806,-85.0912
34.36,-0.0724,-0.0008,5.3783,-62.6393,247.9436,-1846.1334,-85.0925
34.38,-0.0723,-0.0008,5.3769,-62.6393,248.0511,-1847.3861,-85.0938
34.40,-0.0723,-0.0008,5.3754,-62.6393,248.1586,-1848.6389,-85.0951
34.42,-0.0722,-0.0008,5.3740,-62.6393,248.2661,-1849.8917,-85.0964
34.44,-0.0722,-0.0008,5.3726,-62.6393,248.3735,-1851.1445,-85.0978
34.46,-0.0722,-0.0008,5.3711,-62.6393,248.4810,-1852.3973,-85.0991
34.48,-0.0721,-0.0008,5.3697,-62.6394,248.5883,-1853.6501,-85.1004
34.50,-0.0721,-0.0008,5.3682,-62.6394,248.6957,-1854.9029,-85.1017
34.52,-0.0720,-0.0008,5.3668,-62.6394,248.8030,-1856.1556,-85.1030
34.54,-0.0720,-0.0008,5.3653,-62.6394,248.9104,-1857.4084,-85.1043
34.56,-0.0720,-0.0008,5.3639,-62.6394,249.0176,-1858.6612,-85.1056
34.58,-0.0719,-0.0008,5.3625,-62.6394,249.1249,-1859.9140,-85.1069
34.60,-0.0719,-0.0008,5.3610,-62.6394,249.2321,-1861.1668,-85.1082
34.62,-0.0719,-0.0007,5.3596,-62.6395,249.3393,-1862.4196,-85.1095
34.64,-0.0718,-0.0007,5.3582,-62.6395,249.4465,-1863.6724,-85.1108
34.66,-0.0718,-0.0007,5.3567,-62.6395,249.5536,-1864.9252,-85.1121
34.68,-0.0717,-0.0007,5.3553,-62.6395,249.6607,-1866.1780,-85.1134
34.70,-0.0717,-0.0007,5.3539,-62.6395,249.7678,-1867.4307,-85.1148
34.72,-0.0717,-0.0007,5.3524,-62.6395,249.8748,-1868.6835,-85.1161
34.74,-0.0716,-0.0007,5.3510,-62.6396,249.9818,-1869.9363,-85.1174
34.76,-0.0716,-0.0007,5.3496,-62.6396,250.0888,-1871.1891,-85.1187
34.78,-0.0715,-0.0007,5.3481,-62.6396,250.1958,-1872.4419,-85.1200
34.80,-0.0715,-0.0007,5.3467,-62.6396,250.3027,-1873.6947,-85.1213
34.82,-0.0715,-0.0007,5.3453,-62.6396,250.4096,-1874.9475,-85.1226
34.84,-0.0714,-0.0007,5.3438,-62.6396,250.5165,-1876.2003,-85.1239
34.86,-0.0714,-0.0007,5.3424,-62.6396,250.6234,-1877.4531,-85.1252
34.88,-0.0714,-0.0007,5.3410,-62.6396,250.7302,-1878.7059,-85.1264
34.90,-0.0713,-0.0007,5.3396,-62.6397,250.8370,-1879.9587,-85.1277
34.92,-0.0713,-0.0007,5.3381,-62.6397,250.9437,-1881.2115,-85.1290
34.94,-0.0712,-0.0007,5.3367,-62.6397,251.0505,-1882.4643,-85.1303
34.96,-0.0712,-0.0007,5.3353,-62.6397,251.1572,-1883.7170,-85.1316
34.98,-0.0712,-0.0007,5.3339,-62.6397,251.2639,-1884.9698,-85.1329
35.00,-0.0711,-0.0007,5.3324,-62.6397,251.3705,-1886.2226,-85.1342
35.02,-0.0711,-0.0007,5.3310,-62.6397,251.4771,-1887.4754,-85.1355
35.04,-0.0710,-0.0007,5.3296,-62.6398,251.5837,-1888.7282,-85.1368
35.06,-0.0710,-0.0007,5.3282,-62.6398,251.6903,-1889.9810,-85.1381
35.08,-0.0710,-0.0006,5.3268,-62.6398,251.7968,-1891.2338,-85.1394
35.10,-0.0709,-0.0006,5.3253,-62.6398,251.9033,-1892.4866,-85.1407
35.12,-0.0709,-0.0006,5.3239,-62.6398,252.0098,-1893.7394,-85.1420
35.14,-0.0709,-0.0006,5.3225,-62.6398,252.1162,-1894.9922,-85.1432
35.16,-0.0708,-0.0006,5.3211,-62.6398,252.2227,-1896.2450,-85.1445
35.18,-0.0708,-0.0006,5.3197,-62.6398,252.3291,-1897.4978,-85.1458
35.20,-0.0707,-0.0006,5.3183,-62.6399,252.4354,-1898.7506,-85.1471
35.22,-0.0707,-0.0006,5.3168,-62.6399,252.5418,-1900.0034,-85.1484
35.24,-0.0707,-0.0006,5.3154,-62.6399,252.6481,-1901.2562,-85.1497
35.26,-0.0706,-0.0006,5.3140,-62.6399,252.7544,-1902.5090,-85.1510
35.28,-0.0706,-0.0006,5.3126,-62.6399,252.8606,-1903.7618,-85.1522
35.30,-0.0706,-0.0006,5.3112,-62.6399,252.9668,-1905.0146,-85.1535
35.32,-0.0705,-0.0006,5.3098,-62.6399,253.0730,-1906.2674,-85.1548
35.34,-0.0705,-0.0006,5.3084,-62.6399,253.1792,-1907.5202,-85.1561
35.36,-0.0704,-0.0006,5.3070,-62.6400,253.2853,-1908.7730,-85.1574
35.38,-0.0704,-0.0006,5.3056,-62.6400,253.3914,-1910.0258,-85.1586
35.40,-0.0704,-0.0006,5.3041,-62.6400,253.4975,-1911.2786,-85.1599
35.42,-0.0703,-0.0006,5.3027,-62.6400,253.6036,-1912.5314,-85.1612
35.44,-0.0703,-0.0006,5.3013,-62.6400,253.7096,-1913.7842,-85.1625
35.46,-0.0703,-0.0006,5.2999,-62.6400,253.8156,-1915.0370,-85.1638
35.48,-0.0702,-0.0006,5.2985,-62.6400,253.9216,-1916.2898,-85.1650
35.50,-0.0702,-0.0006,5.2971,-62.6400,254.0275,-1917.5426,-85.1663
35.52,-0.0701,-0.0006,5.2957,-62.6400,254.1334,-1918.7954,-85.1676
35.54,-0.0701,-0.0006,5.2943,-62.6401,254.2393,-1920.0482,-85.1689
35.56,-0.0701,-0.0006,5.2929,-62.6401,254.3452,-1921.3010,-85.1701
35.58,-0.0700,-0.0006,5.2915,-62.6401,254.4510,-1922.5538,-85.1714
35.60,-0.0700,-0.0006,5.2901,-62.6401,254.5568,-1923.8066,-85.1727
35.62,-0.0700,-0.0005,5.2887,-62.6401,254.6626,-1925.0594,-85.1740
35.64,-0.0699,-0.0005,5.2873,-62.6401,254.7683,-1926.3122,-85.1752
35.66,-0.0699,-0.0005,5.2859,-62.6401,254.8740,-1927.5650,-85.1765
35.68,-0.0699,-0.0005,5.2845,-62.6401,254.9797,-1928.8178,-85.1778
35.70,-0.0698,-0.0005,5.2831,-62.6401,255.0854,-1930.0706,-85.1790
35.72,-0.0698,-0.0005,5.2817,-62.6402,255.1910,-1931.3234,-85.1803
35.74,-0.0697,-0.0005,5.2803,-62.6402,255.2966,-1932.5762,-85.1816
35.76,-0.0697,-0.0005,5.2789,-62.6402,255.4022,-1933.8290,-85.1828
35.78,-0.0697,-0.0005,5.2775,-62.6402,255.5078,-1935.0818,-85.1841
35.80,-0.0696,-0.0005,5.2762,-62.6402,255.6133,-1936.3346,-85.1854
35.82,-0.0696,-0.0005,5.2748,-62.6402,255.7188,-1937.5874,-85.1866
35.84,-0.0696,-0.0005,5.2734,-62.6402,255.8243,-1938.8402,-85.1879
35.86,-0.0695,-0.0005,5.2720,-62.6402,255.9297,-1940.0930,-85.1892
35.88,-0.0695,-0.0005,5.2706,-62.6402,256.0351,-1941.3458,-85.1904
35.90,-0.0694,-0.0005,5.2692,-62.6403,256.1405,-1942.5986,-85.1917
35.92,-0.0694,-0.0005,5.2678,-62.6403,256.2459,-1943.8514,-85.1929
35.94,-0.0694,-0.0005,5.2664,-62.6403,256.3512,-1945.1043,-85.1942
35.96,-0.0693,-0.0005,5.2650,-62.6403,256.4565,-1946.3571,-85.1955
35.98,-0.0693,-0.0005,5.2637,-62.6403,256.5618,-1947.6099,-85.1967
36.00,-0.0693,-0.0005,5.2623,-62.6403,256.6670,-1948.8627,-85.1980
36.02,-0.0692,-0.0005,5.2609,-62.6403,256.7722,-1950.1155,-85.1992
36.04,-0.0692,-0.0005,5.2595,-62.6403,256.8774,-1951.3683,-85.2005
36.06,-0.0692,-0.0005,5.2581,-62.6403,256.9826,-1952.6211,-85.2018
36.08,-0.0691,-0.0005,5.2567,-62.6403,257.0877,-1953.8739,-85.2030
36.10,-0.0691,-0.0005,5.2554,-62.6403,257.1928,-1955.1267,-85.2043
36.12,-0.0690,-0.0005,5.2540,-62.6404,257.2979,-1956.3795,-85.2055
36.14,-0.0690,-0.0005,5.2526,-62.6404,257.4029,-1957.6323,-85.2068
36.16,-0.0690,-0.0005,5.2512,-62.6404,257.5080,-1958.8851,-85.2080
36.18,-0.0689,-0.0005,5.2498,-62.6404,257.6130,-1960.1379,-85.2093
36.20,-0.0689,-0.0005,5.2485,-62.6404,257.7179,-1961.3907,-85.2105
36.22,-0.0689,-0.0005,5.2471,-62.6404,257.8229,-1962.6436,-85.2118
36.24,-0.0688,-0.0005,5.2457,-62.6404,257.9278,-1963.8964,-85.2130
36.26,-0.0688,-0.0004,5.2443,-62.6404,258.0327,-1965.1492,-85.2143
36.28,-0.0688,-0.0004,5.2430,-62.6404,258.1375,-1966.4020,-85.2155
36.30,-0.0687,-0.0004,5.2416,-62.6404,258.2424,-1967.6548,-85.2168
36.32,-0.0687,-0.0004,5.2402,-62.6404,258.3472,-1968.9076,-85.2180
36.34,-0.0686,-0.0004,5.2388,-62.6405,258.4519,-1970.1604,-85.2193
36.36,-0.0686,-0.0004,5.2375,-62.6405,258.5567,-1971.4132,-85.2205
36.38,-0.0686,-0.0004,5.2361,-62.6405,258.6614,-1972.6660,-85.2218
36.40,-0.0685,-0.0004,5.2347,-62.6405,258.7661,-1973.9188,-85.2230
36.42,-0.0685,-0.0004,5.2333,-62.6405,258.8708,-1975.1716,-85.2243
36.44,-0.0685,-0.0004,5.2320,-62.6405,258.9754,-1976.4245,-85.2255
36.46,-0.0684,-0.0004,5.2306,-62.6405,259.0800,-1977.6773,-85.2268
36.48,-0.0684,-0.0004,5.2292,-62.6405,259.1846,-1978.9301,-85.2280
36.50,-0.0684,-0.0004,5.2279,-62.6405,259.2892,-1980.1829,-85.2292
36.52,-0.0683,-0.0004,5.2265,-62.6405,259.3937,-1981.4357,-85.2305
36.54,-0.0683,-0.0004,5.2251,-62.6405,259.4982,-1982.6885,-85.2317
36.56,-0.0683,-0.0004,5.2238,-62.6405,259.6027,-1983.9413,-85.2330
36.58,-0.0682,-0.0004,5.2224,-62.6406,259.7071,-1985.1941,-85.2342
