time,accel_x,accel_y,vel_x,vel_y,dis_x,dis_y,ang
0.00,0.0000,-9.8100,8.6603,-5.0000,0.0000,30.0000,-30.0000
0.02,-0.1875,-9.7475,8.6565,-5.1950,0.1731,29.8961,-30.9687
0.04,-0.1873,-9.7425,8.6528,-5.3898,0.3462,29.7883,-31.9186
0.06,-0.1872,-9.7374,8.6491,-5.5845,0.5192,29.6766,-32.8496
0.08,-0.1870,-9.7320,8.6453,-5.7792,0.6921,29.5610,-33.7618
0.10,-0.1869,-9.7265,8.6416,-5.9737,0.8649,29.4416,-34.6552
0.12,-0.1867,-9.7208,8.6378,-6.1681,1.0377,29.3182,-35.5300
0.14,-0.1865,-9.7149,8.6341,-6.3624,1.2103,29.1909,-36.3863
0.16,-0.1864,-9.7088,8.6304,-6.5566,1.3830,29.0598,-37.2244
0.18,-0.1862,-9.7025,8.6267,-6.7507,1.5555,28.9248,-38.0444
0.20,-0.1860,-9.6961,8.6229,-6.9446,1.7279,28.7859,-38.8466
0.22,-0.1859,-9.6894,8.6192,-7.1384,1.9003,28.6431,-39.6313
0.24,-0.1857,-9.6826,8.6155,-7.3320,2.0726,28.4965,-40.3986
0.26,-0.1856,-9.6756,8.6118,-7.5255,2.2449,28.3460,-41.1490
0.28,-0.1854,-9.6684,8.6081,-7.7189,2.4170,28.1916,-41.8827
0.30,-0.1852,-9.6610,8.6044,-7.9121,2.5891,28.0334,-42.5999
0.32,-0.1851,-9.6535,8.6007,-8.1052,2.7611,27.8713,-43.3011
0.34,-0.1849,-9.6458,8.5970,-8.2981,2.9331,27.7053,-43.9865
0.36,-0.1848,-9.6379,8.5933,-8.4909,3.1049,27.5355,-44.6565
0.38,-0.1846,-9.6298,8.5896,-8.6835,3.2767,27.3618,-45.3113
0.40,-0.1845,-9.6215,8.5859,-8.8759,3.4485,27.1843,-45.9514
0.42,-0.1843,-9.6130,8.5822,-9.0682,3.6201,27.0029,-46.5770
0.44,-0.1841,-9.6044,8.5785,-9.2602,3.7917,26.8177,-47.1885
0.46,-0.1840,-9.5956,8.5749,-9.4522,3.9632,26.6287,-47.7861
0.48,-0.1838,-9.5866,8.5712,-9.6439,4.1346,26.4358,-48.3703
0.50,-0.1837,-9.5775,8.5675,-9.8354,4.3059,26.2391,-48.9413
0.52,-0.1835,-9.5682,8.5638,-10.0268,4.4772,26.0386,-49.4995
0.54,-0.1833,-9.5587,8.5602,-10.2180,4.6484,25.8342,-50.0452
0.56,-0.1832,-9.5490,8.5565,-10.4090,4.8196,25.6260,-50.5786
0.58,-0.1830,-9.5391,8.5529,-10.5997,4.9906,25.4140,-51.1002
0.60,-0.1829,-9.5291,8.5492,-10.7903,5.1616,25.1982,-51.6101
0.62,-0.1827,-9.5189,8.5455,-10.9807,5.3325,24.9786,-52.1088
0.64,-0.1826,-9.5086,8.5419,-11.1709,5.5033,24.7552,-52.5964
0.66,-0.1824,-9.4980,8.5382,-11.3608,5.6741,24.5280,-53.0733
0.68,-0.1823,-9.4873,8.5346,-11.5506,5.8448,24.2970,-53.5397
0.70,-0.1821,-9.4765,8.5310,-11.7401,6.0154,24.0622,-53.9959
0.72,-0.1819,-9.4654,8.5273,-11.9294,6.1860,23.8236,-54.4423
0.74,-0.1818,-9.4542,8.5237,-12.1185,6.3564,23.5812,-54.8789
0.76,-0.1816,-9.4429,8.5200,-12.3074,6.5268,23.3351,-55.3062
0.78,-0.1815,-9.4313,8.5164,-12.4960,6.6972,23.0851,-55.7243
0.80,-0.1813,-9.4196,8.5128,-12.6844,6.8674,22.8315,-56.1335
0.82,-0.1812,-9.4078,8.5092,-12.8725,7.0376,22.5740,-56.5340
0.84,-0.1810,-9.3957,8.5055,-13.0604,7.2077,22.3128,-56.9260
0.86,-0.1809,-9.3836,8.5019,-13.2481,7.3778,22.0478,-57.3098
0.88,-0.1807,-9.3712,8.4983,-13.4355,7.5477,21.7791,-57.6856
0.90,-0.1806,-9.3587,8.4947,-13.6227,7.7176,21.5067,-58.0536
0.92,-0.1804,-9.3461,8.4911,-13.8096,7.8874,21.2305,-58.4140
0.94,-0.1802,-9.3332,8.4875,-13.9963,8.0572,20.9505,-58.7670
0.96,-0.1801,-9.3203,8.4839,-14.1827,8.2269,20.6669,-59.1127
0.98,-0.1799,-9.3071,8.4803,-14.3688,8.3965,20.3795,-59.4515
1.00,-0.1798,-9.2938,8.4767,-14.5547,8.5660,20.0884,-59.7834
1.02,-0.1796,-9.2804,8.4731,-14.7403,8.7355,19.7936,-60.1087
1.04,-0.1795,-9.2668,8.4695,-14.9257,8.9049,19.4951,-60.4274
1.06,-0.1793,-9.2531,8.4659,-15.1107,9.0742,19.1929,-60.7399
1.08,-0.1792,-9.2392,8.4623,-15.2955,9.2434,18.8870,-61.0461
1.10,-0.1790,-9.2251,8.4588,-15.4800,9.4126,18.5774,-61.3464
1.12,-0.1789,-9.2109,8.4552,-15.6642,9.5817,18.2641,-61.6409
1.14,-0.1787,-9.1966,8.4516,-15.8482,9.7507,17.9471,-61.9296
1.16,-0.1786,-9.1821,8.4480,-16.0318,9.9197,17.6265,-62.2128
1.18,-0.1784,-9.1675,8.4445,-16.2152,10.0886,17.3022,-62.4906
1.20,-0.1783,-9.1527,8.4409,-16.3982,10.2574,16.9742,-62.7631
1.22,-0.1781,-9.1377,8.4373,-16.5810,10.4261,16.6426,-63.0304
1.24,-0.1780,-9.1227,8.4338,-16.7634,10.5948,16.3073,-63.2927
1.26,-0.1778,-9.1075,8.4302,-16.9456,10.7634,15.9684,-63.5502
1.28,-0.1777,-9.0921,8.4267,-17.1274,10.9320,15.6259,-63.8028
1.30,-0.1775,-9.0766,8.4231,-17.3089,11.1004,15.2797,-64.0509
1.32,-0.1774,-9.0610,8.4196,-17.4902,11.2688,14.9299,-64.2943
1.34,-0.1772,-9.0452,8.4160,-17.6711,11.4371,14.5765,-64.5334
1.36,-0.1771,-9.0293,8.4125,-17.8517,11.6054,14.2194,-64.7681
1.38,-0.1769,-9.0133,8.4089,-18.0319,11.7736,13.8588,-64.9986
1.40,-0.1768,-8.9971,8.4054,-18.2119,11.9417,13.4946,-65.2250
1.42,-0.1766,-8.9808,8.4019,-18.3915,12.1097,13.1267,-65.4474
1.44,-0.1765,-8.9644,8.3984,-18.5708,12.2777,12.7553,-65.6658
1.46,-0.1763,-8.9478,8.3948,-18.7497,12.4456,12.3803,-65.8805
1.48,-0.1762,-8.9311,8.3913,-18.9283,12.6134,12.0018,-66.0914
1.50,-0.1760,-8.9143,8.3878,-19.1066,12.7812,11.6196,-66.2986
1.52,-0.1759,-8.8973,8.3843,-19.2846,12.9488,11.2339,-66.5023
1.54,-0.1757,-8.8803,8.3807,-19.4622,13.1165,10.8447,-66.7025
1.56,-0.1756,-8.8631,8.3772,-19.6394,13.2840,10.4519,-66.8992
1.58,-0.1754,-8.8457,8.3737,-19.8164,13.4515,10.0556,-67.0927
1.60,-0.1753,-8.8283,8.3702,-19.9929,13.6189,9.6557,-67.2829
1.62,-0.1752,-8.8107,8.3667,-20.1691,13.7862,9.2523,-67.4700
1.64,-0.1750,-8.7930,8.3632,-20.3450,13.9535,8.8454,-67.6539
1.66,-0.1749,-8.7752,8.3597,-20.5205,14.1207,8.4350,-67.8348
1.68,-0.1747,-8.7573,8.3562,-20.6956,14.2878,8.0211,-68.0127
1.70,-0.1746,-8.7392,8.3527,-20.8704,14.4549,7.6037,-68.1878
1.72,-0.1744,-8.7211,8.3492,-21.0449,14.6218,7.1828,-68.3600
1.74,-0.1743,-8.7028,8.3458,-21.2189,14.7888,6.7584,-68.5294
1.76,-0.1741,-8.6844,8.3423,-21.3926,14.9556,6.3306,-68.6962
1.78,-0.1740,-8.6659,8.3388,-21.5659,15.1224,5.8993,-68.8602
1.80,-0.1738,-8.6473,8.3353,-21.7389,15.2891,5.4645,-69.0217
1.82,-0.1737,-8.6286,8.3318,-21.9114,15.4557,5.0263,-69.1806
1.84,-0.1735,-8.6097,8.3284,-22.0836,15.6223,4.5846,-69.3371
1.86,-0.1734,-8.5908,8.3249,-22.2554,15.7888,4.1395,-69.4911
1.88,-0.1733,-8.5717,8.3214,-22.4269,15.9552,3.6909,-69.6427
1.90,-0.1731,-8.5526,8.3180,-22.5979,16.1216,3.2390,-69.7920
1.92,-0.1730,-8.5333,8.3145,-22.7686,16.2879,2.7836,-69.9391
1.94,-0.1728,-8.5140,8.3111,-22.9389,16.4541,2.3248,-70.0839
1.96,-0.1727,-8.4945,8.3076,-23.1088,16.6202,1.8627,-70.2265
1.98,-0.1725,-8.4750,8.3042,-23.2783,16.7863,1.3971,-70.3669
2.00,-0.1724,-8.4553,8.3007,-23.4474,16.9523,0.9281,-70.5053
2.02,-0.1723,-8.4356,8.2973,-23.6161,17.1183,0.4558,-70.6416
2.04,-0.1721,-8.4157,8.2938,-23.7844,17.2842,-0.0199,-70.7759
2.06,-0.1720,-8.3958,8.2904,-23.9523,17.4500,-0.4989,-70.9082
2.08,-0.1718,-8.3757,8.2870,-24.1198,17.6157,-0.9813,-71.0386
2.10,-0.1717,-8.3556,8.2835,-24.2869,17.7814,-1.4671,-71.1671
2.12,-0.1715,-8.3354,8.2801,-24.4536,17.9470,-1.9561,-71.2937
2.14,-0.1714,-8.3150,8.2767,-24.6199,18.1125,-2.4485,-71.4185
2.16,-0.1713,-8.2946,8.2732,-24.7858,18.2780,-2.9442,-71.5416
2.18,-0.1711,-8.2742,8.2698,-24.9513,18.4434,-3.4433,-71.6629
2.20,-0.1710,-8.2536,8.2664,-25.1164,18.6087,-3.9456,-71.7824
2.22,-0.1708,-8.2329,8.2630,-25.2810,18.7740,-4.4512,-71.9003
2.24,-0.1707,-8.2122,8.2596,-25.4453,18.9391,-4.9601,-72.0165
2.26,-0.1706,-8.1913,8.2561,-25.6091,19.1043,-5.4723,-72.1311
2.28,-0.1704,-8.1704,8.2527,-25.7725,19.2693,-5.9878,-72.2442
2.30,-0.1703,-8.1494,8.2493,-25.9355,19.4343,-6.5065,-72.3556
2.32,-0.1701,-8.1284,8.2459,-26.0981,19.5992,-7.0284,-72.4656
2.34,-0.1700,-8.1072,8.2425,-26.2602,19.7641,-7.5536,-72.5740
2.36,-0.1698,-8.0860,8.2391,-26.4219,19.9289,-8.0821,-72.6810
2.38,-0.1697,-8.0647,8.2357,-26.5832,20.0936,-8.6137,-72.7865
2.40,-0.1696,-8.0433,8.2324,-26.7441,20.2582,-9.1486,-72.8906
2.42,-0.1694,-8.0219,8.2290,-26.9045,20.4228,-9.6867,-72.9933
2.44,-0.1693,-8.0004,8.2256,-27.0646,20.5873,-10.2280,-73.0947
2.46,-0.1692,-7.9788,8.2222,-27.2241,20.7518,-10.7725,-73.1947
2.48,-0.1690,-7.9571,8.2188,-27.3833,20.9161,-11.3201,-73.2934
2.50,-0.1689,-7.9354,8.2154,-27.5420,21.0804,-11.8710,-73.3908
2.52,-0.1687,-7.9136,8.2121,-27.7003,21.2447,-12.4250,-73.4869
2.54,-0.1686,-7.8917,8.2087,-27.8581,21.4089,-12.9822,-73.5818
2.56,-0.1685,-7.8698,8.2053,-28.0155,21.5730,-13.5425,-73.6755
2.58,-0.1683,-7.8478,8.2020,-28.1724,21.7370,-14.1059,-73.7679
2.60,-0.1682,-7.8258,8.1986,-28.3290,21.9010,-14.6725,-73.8592
2.62,-0.1680,-7.8037,8.1952,-28.4850,22.0649,-15.2422,-73.9493
2.64,-0.1679,-7.7815,8.1919,-28.6407,22.2287,-15.8150,-74.0383
2.66,-0.1678,-7.7593,8.1885,-28.7958,22.3925,-16.3909,-74.1261
2.68,-0.1676,-7.7370,8.1852,-28.9506,22.5562,-16.9699,-74.2129
2.70,-0.1675,-7.7147,8.1818,-29.1049,22.7198,-17.5520,-74.2985
2.72,-0.1674,-7.6923,8.1785,-29.2587,22.8834,-18.1372,-74.3831
2.74,-0.1672,-7.6698,8.1751,-29.4121,23.0469,-18.7254,-74.4667
2.76,-0.1671,-7.6473,8.1718,-29.5651,23.2103,-19.3167,-74.5492
2.78,-0.1669,-7.6248,8.1684,-29.7176,23.3737,-19.9111,-74.6307
2.80,-0.1668,-7.6022,8.1651,-29.8696,23.5370,-20.5085,-74.7112
2.82,-0.1667,-7.5795,8.1618,-30.0212,23.7002,-21.1089,-74.7908
2.84,-0.1665,-7.5568,8.1584,-30.1723,23.8634,-21.7124,-74.8693
2.86,-0.1664,-7.5341,8.1551,-30.3230,24.0265,-22.3188,-74.9470
2.88,-0.1663,-7.5113,8.1518,-30.4732,24.1896,-22.9283,-75.0237
2.90,-0.1661,-7.4885,8.1485,-30.6230,24.3525,-23.5407,-75.0995
2.92,-0.1660,-7.4656,8.1451,-30.7723,24.5154,-24.1562,-75.1743
2.94,-0.1659,-7.4427,8.1418,-30.9212,24.6783,-24.7746,-75.2483
2.96,-0.1657,-7.4197,8.1385,-31.0696,24.8410,-25.3960,-75.3215
2.98,-0.1656,-7.3967,8.1352,-31.2175,25.0037,-26.0204,-75.3937
3.00,-0.1655,-7.3737,8.1319,-31.3650,25.1664,-26.6477,-75.4651
3.02,-0.1653,-7.3506,8.1286,-31.5120,25.3289,-27.2779,-75.5357
3.04,-0.1652,-7.3275,8.1253,-31.6585,25.4914,-27.9111,-75.6055
3.06,-0.1651,-7.3043,8.1220,-31.8046,25.6539,-28.5472,-75.6745
3.08,-0.1649,-7.2812,8.1187,-31.9502,25.8163,-29.1862,-75.7427
3.10,-0.1648,-7.2580,8.1154,-32.0954,25.9786,-29.8281,-75.8101
3.12,-0.1646,-7.2347,8.1121,-32.2401,26.1408,-30.4729,-75.8767
3.14,-0.1645,-7.2114,8.1088,-32.3843,26.3030,-31.1206,-75.9426
3.16,-0.1644,-7.1881,8.1055,-32.5281,26.4651,-31.7711,-76.0077
3.18,-0.1642,-7.1648,8.1022,-32.6714,26.6271,-32.4246,-76.0721
3.20,-0.1641,-7.1415,8.0990,-32.8142,26.7891,-33.0808,-76.1358
3.22,-0.1640,-7.1181,8.0957,-32.9566,26.9510,-33.7400,-76.1988
3.24,-0.1638,-7.0947,8.0924,-33.0985,27.1129,-34.4019,-76.2610
3.26,-0.1637,-7.0712,8.0891,-33.2399,27.2747,-35.0667,-76.3226
3.28,-0.1636,-7.0478,8.0858,-33.3808,27.4364,-35.7344,-76.3835
3.30,-0.1635,-7.0243,8.0826,-33.5213,27.5980,-36.4048,-76.4437
3.32,-0.1633,-7.0008,8.0793,-33.6614,27.7596,-37.0780,-76.5033
3.34,-0.1632,-6.9773,8.0760,-33.8009,27.9211,-37.7540,-76.5622
3.36,-0.1631,-6.9537,8.0728,-33.9400,28.0826,-38.4328,-76.6205
3.38,-0.1629,-6.9302,8.0695,-34.0786,28.2440,-39.1144,-76.6782
3.40,-0.1628,-6.9066,8.0663,-34.2167,28.4053,-39.7987,-76.7352
3.42,-0.1627,-6.8830,8.0630,-34.3544,28.5666,-40.4858,-76.7917
3.44,-0.1625,-6.8594,8.0598,-34.4916,28.7278,-41.1756,-76.8475
3.46,-0.1624,-6.8358,8.0565,-34.6283,28.8889,-41.8682,-76.9027
3.48,-0.1623,-6.8122,8.0533,-34.7645,29.0500,-42.5635,-76.9574
3.50,-0.1621,-6.7886,8.0500,-34.9003,29.2110,-43.2615,-77.0114
3.52,-0.1620,-6.7649,8.0468,-35.0356,29.3719,-43.9622,-77.0649
3.54,-0.1619,-6.7413,8.0436,-35.1704,29.5328,-44.6656,-77.1179
3.56,-0.1617,-6.7176,8.0403,-35.3048,29.6936,-45.3717,-77.1703
3.58,-0.1616,-6.6939,8.0371,-35.4386,29.8543,-46.0805,-77.2221
3.60,-0.1615,-6.6703,8.0339,-35.5721,30.0150,-46.7919,-77.2734
3.62,-0.1614,-6.6466,8.0306,-35.7050,30.1756,-47.5060,-77.3242
3.64,-0.1612,-6.6229,8.0274,-35.8374,30.3362,-48.2228,-77.3744
3.66,-0.1611,-6.5992,8.0242,-35.9694,30.4966,-48.9422,-77.4242
3.68,-0.1610,-6.5755,8.0210,-36.1009,30.6571,-49.6642,-77.4734
3.70,-0.1608,-6.5518,8.0177,-36.2320,30.8174,-50.3888,-77.5221
3.72,-0.1607,-6.5281,8.0145,-36.3625,30.9777,-51.1161,-77.5704
3.74,-0.1606,-6.5044,8.0113,-36.4926,31.1379,-51.8459,-77.6181
3.76,-0.1605,-6.4807,8.0081,-36.6222,31.2981,-52.5784,-77.6654
3.78,-0.1603,-6.4570,8.0049,-36.7514,31.4582,-53.3134,-77.7122
3.80,-0.1602,-6.4333,8.0017,-36.8800,31.6182,-54.0510,-77.7585
3.82,-0.1601,-6.4097,7.9985,-37.0082,31.7782,-54.7912,-77.8044
3.84,-0.1599,-6.3860,7.9953,-37.1360,31.9381,-55.5339,-77.8498
3.86,-0.1598,-6.3623,7.9921,-37.2632,32.0979,-56.2792,-77.8948
3.88,-0.1597,-6.3386,7.9889,-37.3900,32.2577,-57.0270,-77.9393
3.90,-0.1596,-6.3150,7.9857,-37.5163,32.4174,-57.7773,-77.9834
3.92,-0.1594,-6.2913,7.9825,-37.6421,32.5771,-58.5301,-78.0270
3.94,-0.1593,-6.2677,7.9793,-37.7675,32.7367,-59.2855,-78.0702
3.96,-0.1592,-6.2440,7.9762,-37.8923,32.8962,-60.0433,-78.1130
3.98,-0.1590,-6.2204,7.9730,-38.0167,33.0557,-60.8037,-78.1554
4.00,-0.1589,-6.1968,7.9698,-38.1407,33.2151,-61.5665,-78.1974
4.02,-0.1588,-6.1732,7.9666,-38.2641,33.3744,-62.3317,-78.2390
4.04,-0.1587,-6.1496,7.9635,-38.3871,33.5337,-63.0995,-78.2802
4.06,-0.1585,-6.1261,7.9603,-38.5097,33.6929,-63.8697,-78.3209
4.08,-0.1584,-6.1025,7.9571,-38.6317,33.8520,-64.6423,-78.3613
4.10,-0.1583,-6.0790,7.9540,-38.7533,34.0111,-65.4174,-78.4014
4.12,-0.1582,-6.0555,7.9508,-38.8744,34.1701,-66.1949,-78.4410
4.14,-0.1580,-6.0320,7.9476,-38.9950,34.3291,-66.9748,-78.4803
4.16,-0.1579,-6.0085,7.9445,-39.1152,34.4879,-67.7571,-78.5191
4.18,-0.1578,-5.9850,7.9413,-39.2349,34.6468,-68.5418,-78.5577
4.20,-0.1577,-5.9616,7.9382,-39.3541,34.8055,-69.3289,-78.5958
4.22,-0.1575,-5.9381,7.9350,-39.4729,34.9642,-70.1183,-78.6337
4.24,-0.1574,-5.9147,7.9319,-39.5912,35.1229,-70.9101,-78.6711
4.26,-0.1573,-5.8913,7.9287,-39.7090,35.2814,-71.7043,-78.7082
4.28,-0.1572,-5.8680,7.9256,-39.8264,35.4400,-72.5008,-78.7450
4.30,-0.1570,-5.8446,7.9224,-39.9433,35.5984,-73.2997,-78.7814
4.32,-0.1569,-5.8213,7.9193,-40.0597,35.7568,-74.1009,-78.8175
4.34,-0.1568,-5.7981,7.9162,-40.1757,35.9151,-74.9044,-78.8533
4.36,-0.1567,-5.7748,7.9130,-40.2912,36.0734,-75.7102,-78.8888
4.38,-0.1565,-5.7516,7.9099,-40.4062,36.2316,-76.5184,-78.9239
4.40,-0.1564,-5.7284,7.9068,-40.5208,36.3897,-77.3288,-78.9587
4.42,-0.1563,-5.7052,7.9036,-40.6349,36.5478,-78.1415,-78.9932
4.44,-0.1562,-5.6820,7.9005,-40.7485,36.7058,-78.9565,-79.0274
4.46,-0.1560,-5.6589,7.8974,-40.8617,36.8637,-79.7737,-79.0612
4.48,-0.1559,-5.6358,7.8943,-40.9744,37.0216,-80.5932,-79.0948
4.50,-0.1558,-5.6127,7.8912,-41.0866,37.1794,-81.4149,-79.1281
4.52,-0.1557,-5.5897,7.8880,-41.1984,37.3372,-82.2389,-79.1611
4.54,-0.1556,-5.5667,7.8849,-41.3098,37.4949,-83.0651,-79.1937
4.56,-0.1554,-5.5438,7.8818,-41.4207,37.6525,-83.8935,-79.2261
4.58,-0.1553,-5.5208,7.8787,-41.5311,37.8101,-84.7241,-79.2583
4.60,-0.1552,-5.4979,7.8756,-41.6410,37.9676,-85.5569,-79.2901
4.62,-0.1551,-5.4751,7.8725,-41.7505,38.1251,-86.3919,-79.3216
4.64,-0.1549,-5.4522,7.8694,-41.8596,38.2825,-87.2291,-79.3529
4.66,-0.1548,-5.4294,7.8663,-41.9682,38.4398,-88.0685,-79.3839
4.68,-0.1547,-5.4067,7.8632,-42.0763,38.5971,-88.9100,-79.4147
4.70,-0.1546,-5.3840,7.8601,-42.1840,38.7543,-89.7537,-79.4451
4.72,-0.1545,-5.3613,7.8570,-42.2912,38.9114,-90.5995,-79.4753
4.74,-0.1543,-5.3386,7.8540,-42.3980,39.0685,-91.4475,-79.5053
4.76,-0.1542,-5.3160,7.8509,-42.5043,39.2255,-92.2976,-79.5350
4.78,-0.1541,-5.2935,7.8478,-42.6102,39.3825,-93.1498,-79.5644
4.80,-0.1540,-5.2709,7.8447,-42.7156,39.5393,-94.0041,-79.5936
4.82,-0.1538,-5.2484,7.8416,-42.8205,39.6962,-94.8605,-79.6225
4.84,-0.1537,-5.2260,7.8386,-42.9251,39.8530,-95.7190,-79.6512
4.86,-0.1536,-5.2036,7.8355,-43.0291,40.0097,-96.5796,-79.6797
4.88,-0.1535,-5.1812,7.8324,-43.1328,40.1663,-97.4422,-79.7079
4.90,-0.1534,-5.1589,7.8294,-43.2359,40.3229,-98.3069,-79.7359
4.92,-0.1532,-5.1366,7.8263,-43.3387,40.4794,-99.1737,-79.7636
4.94,-0.1531,-5.1144,7.8232,-43.4410,40.6359,-100.0425,-79.7911
4.96,-0.1530,-5.0922,7.8202,-43.5428,40.7923,-100.9134,-79.8184
4.98,-0.1529,-5.0701,7.8171,-43.6442,40.9486,-101.7863,-79.8454
5.00,-0.1528,-5.0480,7.8141,-43.7452,41.1049,-102.6612,-79.8723
5.02,-0.1526,-5.0259,7.8110,-43.8457,41.2611,-103.5381,-79.8989
5.04,-0.1525,-5.0039,7.8079,-43.9458,41.4173,-104.4170,-79.9253
5.06,-0.1524,-4.9819,7.8049,-44.0454,41.5734,-105.2979,-79.9514
5.08,-0.1523,-4.9600,7.8019,-44.1446,41.7294,-106.1808,-79.9774
5.10,-0.1522,-4.9381,7.7988,-44.2434,41.8854,-107.0657,-80.0031
5.12,-0.1521,-4.9163,7.7958,-44.3417,42.0413,-107.9525,-80.0287
5.14,-0.1519,-4.8945,7.7927,-44.4396,42.1972,-108.8413,-80.0540
5.16,-0.1518,-4.8728,7.7897,-44.5370,42.3530,-109.7320,-80.0791
5.18,-0.1517,-4.8511,7.7867,-44.6341,42.5087,-110.6247,-80.1040
5.20,-0.1516,-4.8295,7.7836,-44.7307,42.6644,-111.5193,-80.1287
5.22,-0.1515,-4.8079,7.7806,-44.8268,42.8200,-112.4159,-80.1533
5.24,-0.1513,-4.7864,7.7776,-44.9225,42.9755,-113.3143,-80.1776
5.26,-0.1512,-4.7649,7.7745,-45.0178,43.1310,-114.2147,-80.2017
5.28,-0.1511,-4.7435,7.7715,-45.1127,43.2865,-115.1169,-80.2256
5.30,-0.1510,-4.7221,7.7685,-45.2071,43.4418,-116.0211,-80.2494
5.32,-0.1509,-4.7008,7.7655,-45.3012,43.5971,-116.9271,-80.2729
5.34,-0.1508,-4.6795,7.7625,-45.3948,43.7524,-117.8350,-80.2963
5.36,-0.1506,-4.6583,7.7595,-45.4879,43.9076,-118.7448,-80.3195
5.38,-0.1505,-4.6371,7.7565,-45.5807,44.0627,-119.6564,-80.3425
5.40,-0.1504,-4.6160,7.7534,-45.6730,44.2178,-120.5698,-80.3653
5.42,-0.1503,-4.5949,7.7504,-45.7649,44.3728,-121.4851,-80.3880
5.44,-0.1502,-4.5739,7.7474,-45.8564,44.5277,-122.4023,-80.4104
5.46,-0.1501,-4.5530,7.7444,-45.9474,44.6826,-123.3212,-80.4327
5.48,-0.1499,-4.5321,7.7414,-46.0381,44.8375,-124.2420,-80.4548
5.50,-0.1498,-4.5112,7.7384,-46.1283,44.9922,-125.1645,-80.4768
5.52,-0.1497,-4.4905,7.7354,-46.2181,45.1469,-126.0889,-80.4986
5.54,-0.1496,-4.4697,7.7325,-46.3075,45.3016,-127.0150,-80.5202
5.56,-0.1495,-4.4490,7.7295,-46.3965,45.4562,-127.9430,-80.5416
5.58,-0.1494,-4.4284,7.7265,-46.4850,45.6107,-128.8727,-80.5629
5.60,-0.1492,-4.4079,7.7235,-46.5732,45.7652,-129.8041,-80.5840
5.62,-0.1491,-4.3873,7.7205,-46.6609,45.9196,-130.7374,-80.6050
5.64,-0.1490,-4.3669,7.7175,-46.7483,46.0739,-131.6723,-80.6258
5.66,-0.1489,-4.3465,7.7145,-46.8352,46.2282,-132.6090,-80.6464
5.68,-0.1488,-4.3262,7.7116,-46.9217,46.3824,-133.5475,-80.6669
5.70,-0.1487,-4.3059,7.7086,-47.0079,46.5366,-134.4876,-80.6872
5.72,-0.1486,-4.2857,7.7056,-47.0936,46.6907,-135.4295,-80.7074
5.74,-0.1484,-4.2655,7.7027,-47.1789,46.8448,-136.3731,-80.7274
5.76,-0.1483,-4.2454,7.6997,-47.2638,46.9988,-137.3183,-80.7473
5.78,-0.1482,-4.2253,7.6967,-47.3483,47.1527,-138.2653,-80.7670
5.80,-0.1481,-4.2053,7.6938,-47.4324,47.3066,-139.2140,-80.7866
5.82,-0.1480,-4.1854,7.6908,-47.5161,47.4604,-140.1643,-80.8060
5.84,-0.1479,-4.1655,7.6878,-47.5994,47.6142,-141.1163,-80.8253
5.86,-0.1478,-4.1457,7.6849,-47.6823,47.7679,-142.0699,-80.8445
5.88,-0.1476,-4.1260,7.6819,-47.7649,47.9215,-143.0252,-80.8635
5.90,-0.1475,-4.1063,7.6790,-47.8470,48.0751,-143.9822,-80.8823
5.92,-0.1474,-4.0867,7.6760,-47.9287,48.2286,-144.9407,-80.9010
5.94,-0.1473,-4.0671,7.6731,-48.0101,48.3821,-145.9009,-80.9196
5.96,-0.1472,-4.0476,7.6702,-48.0910,48.5355,-146.8627,-80.9381
5.98,-0.1471,-4.0281,7.6672,-48.1716,48.6888,-147.8262,-80.9564
6.00,-0.1470,-4.0088,7.6643,-48.2517,48.8421,-148.7912,-80.9746
6.02,-0.1469,-3.9894,7.6613,-48.3315,48.9953,-149.7578,-80.9926
6.04,-0.1467,-3.9702,7.6584,-48.4109,49.1485,-150.7261,-81.0106
6.06,-0.1466,-3.9510,7.6555,-48.4900,49.3016,-151.6959,-81.0283
6.08,-0.1465,-3.9318,7.6525,-48.5686,49.4547,-152.6672,-81.0460
6.10,-0.1464,-3.9127,7.6496,-48.6468,49.6076,-153.6402,-81.0635
6.12,-0.1463,-3.8937,7.6467,-48.7247,49.7606,-154.6147,-81.0810
6.14,-0.1462,-3.8748,7.6438,-48.8022,49.9135,-155.5907,-81.0982
6.16,-0.1461,-3.8559,7.6408,-48.8793,50.0663,-156.5683,-81.1154
6.18,-0.1460,-3.8370,7.6379,-48.9561,50.2190,-157.5474,-81.1324
6.20,-0.1458,-3.8183,7.6350,-49.0324,50.3717,-158.5281,-81.1494
6.22,-0.1457,-3.7996,7.6321,-49.1084,50.5244,-159.5102,-81.1662
6.24,-0.1456,-3.7809,7.6292,-49.1840,50.6770,-160.4939,-81.1828
6.26,-0.1455,-3.7623,7.6263,-49.2593,50.8295,-161.4791,-81.1994
6.28,-0.1454,-3.7438,7.6234,-49.3342,50.9819,-162.4658,-81.2159
6.30,-0.1453,-3.7253,7.6205,-49.4087,51.1344,-163.4540,-81.2322
6.32,-0.1452,-3.7070,7.6175,-49.4828,51.2867,-164.4436,-81.2484
6.34,-0.1451,-3.6886,7.6146,-49.5566,51.4390,-165.4347,-81.2645
6.36,-0.1450,-3.6704,7.6117,-49.6300,51.5912,-166.4273,-81.2805
6.38,-0.1448,-3.6522,7.6088,-49.7030,51.7434,-167.4214,-81.2964
6.40,-0.1447,-3.6340,7.6060,-49.7757,51.8955,-168.4169,-81.3121
6.42,-0.1446,-3.6159,7.6031,-49.8480,52.0476,-169.4139,-81.3278
6.44,-0.1445,-3.5979,7.6002,-49.9200,52.1996,-170.4123,-81.3434
6.46,-0.1444,-3.5800,7.5973,-49.9916,52.3515,-171.4121,-81.3588
6.48,-0.1443,-3.5621,7.5944,-50.0628,52.5034,-172.4134,-81.3741
6.50,-0.1442,-3.5443,7.5915,-50.1337,52.6553,-173.4160,-81.3894
6.52,-0.1441,-3.5265,7.5886,-50.2043,52.8070,-174.4201,-81.4045
6.54,-0.1440,-3.5088,7.5858,-50.2744,52.9587,-175.4256,-81.4195
6.56,-0.1439,-3.4912,7.5829,-50.3443,53.1104,-176.4325,-81.4345
6.58,-0.1438,-3.4736,7.5800,-50.4137,53.2620,-177.4408,-81.4493
6.60,-0.1436,-3.4561,7.5771,-50.4828,53.4135,-178.4504,-81.4640
6.62,-0.1435,-3.4387,7.5743,-50.5516,53.5650,-179.4615,-81.4786
6.64,-0.1434,-3.4213,7.5714,-50.6200,53.7165,-180.4739,-81.4932
6.66,-0.1433,-3.4040,7.5685,-50.6881,53.8678,-181.4876,-81.5076
6.68,-0.1432,-3.3868,7.5657,-50.7559,54.0191,-182.5027,-81.5219
6.70,-0.1431,-3.3696,7.5628,-50.8233,54.1704,-183.5192,-81.5362
6.72,-0.1430,-3.3525,7.5599,-50.8903,54.3216,-184.5370,-81.5503
6.74,-0.1429,-3.3354,7.5571,-50.9570,54.4727,-185.5562,-81.5643
6.76,-0.1428,-3.3185,7.5542,-51.0234,54.6238,-186.5766,-81.5783
6.78,-0.1427,-3.3015,7.5514,-51.0894,54.7748,-187.5984,-81.5922
6.80,-0.1426,-3.2847,7.5485,-51.1551,54.9258,-188.6215,-81.6059
6.82,-0.1425,-3.2679,7.5457,-51.2205,55.0767,-189.6459,-81.6196
6.84,-0.1423,-3.2512,7.5428,-51.2855,55.2276,-190.6716,-81.6332
6.86,-0.1422,-3.2345,7.5400,-51.3502,55.3784,-191.6986,-81.6467
6.88,-0.1421,-3.2179,7.5371,-51.4145,55.5291,-192.7269,-81.6601
6.90,-0.1420,-3.2014,7.5343,-51.4786,55.6798,-193.7565,-81.6734
6.92,-0.1419,-3.1849,7.5315,-51.5423,55.8304,-194.7873,-81.6867
6.94,-0.1418,-3.1685,7.5286,-51.6056,55.9810,-195.8195,-81.6998
6.96,-0.1417,-3.1521,7.5258,-51.6687,56.1315,-196.8528,-81.7129
6.98,-0.1416,-3.1359,7.5230,-51.7314,56.2820,-197.8875,-81.7259
7.00,-0.1415,-3.1197,7.5201,-51.7938,56.4324,-198.9233,-81.7387
7.02,-0.1414,-3.1035,7.5173,-51.8559,56.5827,-199.9605,-81.7516
7.04,-0.1413,-3.0874,7.5145,-51.9176,56.7330,-200.9988,-81.7643
7.06,-0.1412,-3.0714,7.5116,-51.9790,56.8833,-202.0384,-81.7769
7.08,-0.1411,-3.0555,7.5088,-52.0401,57.0334,-203.0792,-81.7895
7.10,-0.1410,-3.0396,7.5060,-52.1009,57.1836,-204.1212,-81.8020
7.12,-0.1409,-3.0237,7.5032,-52.1614,57.3336,-205.1644,-81.8144
7.14,-0.1407,-3.0080,7.5004,-52.2216,57.4836,-206.2089,-81.8267
7.16,-0.1406,-2.9923,7.4976,-52.2814,57.6336,-207.2545,-81.8390
7.18,-0.1405,-2.9766,7.4948,-52.3409,57.7835,-208.3013,-81.8512
7.20,-0.1404,-2.9611,7.4919,-52.4002,57.9333,-209.3493,-81.8632
7.22,-0.1403,-2.9456,7.4891,-52.4591,58.0831,-210.3985,-81.8753
7.24,-0.1402,-2.9301,7.4863,-52.5177,58.2328,-211.4489,-81.8872
7.26,-0.1401,-2.9147,7.4835,-52.5760,58.3825,-212.5004,-81.8991
7.28,-0.1400,-2.8994,7.4807,-52.6340,58.5321,-213.5531,-81.9109
7.30,-0.1399,-2.8842,7.4779,-52.6916,58.6817,-214.6069,-81.9226
7.32,-0.1398,-2.8690,7.4751,-52.7490,58.8312,-215.6619,-81.9342
7.34,-0.1397,-2.8539,7.4723,-52.8061,58.9806,-216.7180,-81.9458
7.36,-0.1396,-2.8388,7.4696,-52.8629,59.1300,-217.7752,-81.9573
7.38,-0.1395,-2.8238,7.4668,-52.9194,59.2793,-218.8336,-81.9688
7.40,-0.1394,-2.8089,7.4640,-52.9755,59.4286,-219.8931,-81.9801
7.42,-0.1393,-2.7940,7.4612,-53.0314,59.5779,-220.9538,-81.9914
7.44,-0.1392,-2.7792,7.4584,-53.0870,59.7270,-222.0155,-82.0026
7.46,-0.1391,-2.7644,7.4556,-53.1423,59.8761,-223.0784,-82.0138
7.48,-0.1390,-2.7497,7.4528,-53.1973,60.0252,-224.1423,-82.0249
7.50,-0.1389,-2.7351,7.4501,-53.2520,60.1742,-225.2073,-82.0359
7.52,-0.1388,-2.7206,7.4473,-53.3064,60.3231,-226.2735,-82.0468
7.54,-0.1387,-2.7061,7.4445,-53.3605,60.4720,-227.3407,-82.0577
7.56,-0.1386,-2.6916,7.4417,-53.4143,60.6209,-228.4090,-82.0685
7.58,-0.1384,-2.6773,7.4390,-53.4679,60.7696,-229.4783,-82.0793
7.60,-0.1383,-2.6630,7.4362,-53.5212,60.9184,-230.5487,-82.0900
7.62,-0.1382,-2.6487,7.4334,-53.5741,61.0670,-231.6202,-82.1006
7.64,-0.1381,-2.6345,7.4307,-53.6268,61.2156,-232.6928,-82.1112
7.66,-0.1380,-2.6204,7.4279,-53.6792,61.3642,-233.7664,-82.1217
7.68,-0.1379,-2.6064,7.4252,-53.7314,61.5127,-234.8410,-82.1321
7.70,-0.1378,-2.5924,7.4224,-53.7832,61.6612,-235.9166,-82.1425
7.72,-0.1377,-2.5784,7.4197,-53.8348,61.8096,-236.9933,-82.1528
7.74,-0.1376,-2.5645,7.4169,-53.8861,61.9579,-238.0711,-82.1630
7.76,-0.1375,-2.5507,7.4142,-53.9371,62.1062,-239.1498,-82.1732
7.78,-0.1374,-2.5370,7.4114,-53.9878,62.2544,-240.2296,-82.1833
7.80,-0.1373,-2.5233,7.4087,-54.0383,62.4026,-241.3103,-82.1934
7.82,-0.1372,-2.5097,7.4059,-54.0885,62.5507,-242.3921,-82.2034
7.84,-0.1371,-2.4961,7.4032,-54.1384,62.6988,-243.4749,-82.2134
7.86,-0.1370,-2.4826,7.4004,-54.1880,62.8468,-244.5586,-82.2233
7.88,-0.1369,-2.4691,7.3977,-54.2374,62.9947,-245.6434,-82.2331
7.90,-0.1368,-2.4558,7.3950,-54.2865,63.1426,-246.7291,-82.2429
7.92,-0.1367,-2.4424,7.3922,-54.3354,63.2905,-247.8158,-82.2526
7.94,-0.1366,-2.4292,7.3895,-54.3840,63.4382,-248.9035,-82.2623
7.96,-0.1365,-2.4160,7.3868,-54.4323,63.5860,-249.9921,-82.2719
7.98,-0.1364,-2.4028,7.3840,-54.4803,63.7337,-251.0817,-82.2814
8.00,-0.1363,-2.3897,7.3813,-54.5281,63.8813,-252.1723,-82.2909
8.02,-0.1362,-2.3767,7.3786,-54.5757,64.0289,-253.2638,-82.3004
8.04,-0.1361,-2.3637,7.3759,-54.6230,64.1764,-254.3563,-82.3097
8.06,-0.1360,-2.3508,7.3731,-54.6700,64.3238,-255.4497,-82.3191
8.08,-0.1359,-2.3380,7.3704,-54.7167,64.4713,-256.5440,-82.3284
8.10,-0.1358,-2.3252,7.3677,-54.7632,64.6186,-257.6393,-82.3376
8.12,-0.1357,-2.3125,7.3650,-54.8095,64.7659,-258.7355,-82.3468
8.14,-0.1356,-2.2998,7.3623,-54.8555,64.9132,-259.8326,-82.3559
8.16,-0.1355,-2.2872,7.3596,-54.9012,65.0603,-260.9306,-82.3650
8.18,-0.1354,-2.2746,7.3569,-54.9467,65.2075,-262.0295,-82.3740
8.20,-0.1353,-2.2621,7.3542,-54.9920,65.3546,-263.1294,-82.3829
8.22,-0.1352,-2.2497,7.3514,-55.0370,65.5016,-264.2301,-82.3919
8.24,-0.1351,-2.2373,7.3487,-55.0817,65.6486,-265.3317,-82.4007
8.26,-0.1350,-2.2250,7.3460,-55.1262,65.7955,-266.4343,-82.4096
8.28,-0.1349,-2.2128,7.3433,-55.1705,65.9424,-267.5377,-82.4183
8.30,-0.1348,-2.2006,7.3407,-55.2145,66.0892,-268.6420,-82.4271
8.32,-0.1347,-2.1884,7.3380,-55.2582,66.2359,-269.7471,-82.4357
8.34,-0.1346,-2.1763,7.3353,-55.3018,66.3826,-270.8532,-82.4444
8.36,-0.1345,-2.1643,7.3326,-55.3450,66.5293,-271.9601,-82.4529
8.38,-0.1344,-2.1523,7.3299,-55.3881,66.6759,-273.0678,-82.4615
8.40,-0.1343,-2.1404,7.3272,-55.4309,66.8224,-274.1764,-82.4699
8.42,-0.1342,-2.1285,7.3245,-55.4735,66.9689,-275.2859,-82.4784
8.44,-0.1341,-2.1167,7.3218,-55.5158,67.1154,-276.3962,-82.4868
8.46,-0.1340,-2.1050,7.3192,-55.5579,67.2617,-277.5074,-82.4951
8.48,-0.1339,-2.0933,7.3165,-55.5998,67.4081,-278.6194,-82.5034
8.50,-0.1338,-2.0817,7.3138,-55.6414,67.5543,-279.7322,-82.5117
8.52,-0.1337,-2.0701,7.3111,-55.6828,67.7006,-280.8459,-82.5199
8.54,-0.1336,-2.0586,7.3084,-55.7240,67.8467,-281.9603,-82.5280
8.56,-0.1335,-2.0471,7.3058,-55.7649,67.9928,-283.0756,-82.5362
8.58,-0.1334,-2.0357,7.3031,-55.8056,68.1389,-284.1918,-82.5442
8.60,-0.1333,-2.0243,7.3004,-55.8461,68.2849,-285.3087,-82.5523
8.62,-0.1332,-2.0130,7.2978,-55.8864,68.4309,-286.4264,-82.5603
8.64,-0.1331,-2.0018,7.2951,-55.9264,68.5768,-287.5449,-82.5682
8.66,-0.1330,-1.9906,7.2925,-55.9662,68.7226,-288.6643,-82.5761
8.68,-0.1329,-1.9795,7.2898,-56.0058,68.8684,-289.7844,-82.5840
8.70,-0.1329,-1.9684,7.2871,-56.0452,69.0142,-290.9053,-82.5918
8.72,-0.1328,-1.9573,7.2845,-56.0843,69.1599,-292.0270,-82.5996
8.74,-0.1327,-1.9464,7.2818,-56.1233,69.3055,-293.1494,-82.6073
8.76,-0.1326,-1.9354,7.2792,-56.1620,69.4511,-294.2727,-82.6150
8.78,-0.1325,-1.9246,7.2765,-56.2005,69.5966,-295.3967,-82.6227
8.80,-0.1324,-1.9138,7.2739,-56.2387,69.7421,-296.5215,-82.6303
8.82,-0.1323,-1.9030,7.2712,-56.2768,69.8875,-297.6470,-82.6379
8.84,-0.1322,-1.8923,7.2686,-56.3146,70.0329,-298.7733,-82.6454
8.86,-0.1321,-1.8817,7.2660,-56.3523,70.1782,-299.9003,-82.6529
8.88,-0.1320,-1.8711,7.2633,-56.3897,70.3235,-301.0281,-82.6604
8.90,-0.1319,-1.8605,7.2607,-56.4269,70.4687,-302.1567,-82.6678
8.92,-0.1318,-1.8500,7.2580,-56.4639,70.6138,-303.2859,-82.6752
8.94,-0.1317,-1.8396,7.2554,-56.5007,70.7589,-304.4160,-82.6825
8.96,-0.1316,-1.8292,7.2528,-56.5373,70.9040,-305.5467,-82.6899
8.98,-0.1315,-1.8188,7.2501,-56.5737,71.0490,-306.6782,-82.6971
9.00,-0.1314,-1.8086,7.2475,-56.6098,71.1940,-307.8104,-82.7044
9.02,-0.1313,-1.7983,7.2449,-56.6458,71.3389,-308.9433,-82.7115
9.04,-0.1312,-1.7881,7.2423,-56.6816,71.4837,-310.0769,-82.7187
9.06,-0.1311,-1.7780,7.2396,-56.7171,71.6285,-311.2113,-82.7258
9.08,-0.1310,-1.7679,7.2370,-56.7525,71.7732,-312.3463,-82.7329
9.10,-0.1309,-1.7579,7.2344,-56.7876,71.9179,-313.4821,-82.7400
9.12,-0.1308,-1.7479,7.2318,-56.8226,72.0626,-314.6185,-82.7470
9.14,-0.1307,-1.7380,7.2292,-56.8574,72.2071,-315.7557,-82.7540
9.16,-0.1307,-1.7281,7.2266,-56.8919,72.3517,-316.8935,-82.7609
9.18,-0.1306,-1.7183,7.2239,-56.9263,72.4961,-318.0320,-82.7678
9.20,-0.1305,-1.7085,7.2213,-56.9604,72.6406,-319.1712,-82.7747
9.22,-0.1304,-1.6988,7.2187,-56.9944,72.7849,-320.3111,-82.7815
9.24,-0.1303,-1.6891,7.2161,-57.0282,72.9293,-321.4517,-82.7883
9.26,-0.1302,-1.6795,7.2135,-57.0618,73.0735,-322.5929,-82.7951
9.28,-0.1301,-1.6699,7.2109,-57.0952,73.2178,-323.7348,-82.8019
9.30,-0.1300,-1.6603,7.2083,-57.1284,73.3619,-324.8774,-82.8086
9.32,-0.1299,-1.6509,7.2057,-57.1614,73.5060,-326.0206,-82.8152
9.34,-0.1298,-1.6414,7.2031,-57.1942,73.6501,-327.1645,-82.8219
9.36,-0.1297,-1.6320,7.2005,-57.2269,73.7941,-328.3090,-82.8285
9.38,-0.1296,-1.6227,7.1979,-57.2593,73.9381,-329.4542,-82.8351
9.40,-0.1295,-1.6134,7.1953,-57.2916,74.0820,-330.6001,-82.8416
9.42,-0.1294,-1.6042,7.1928,-57.3237,74.2258,-331.7465,-82.8481
9.44,-0.1293,-1.5950,7.1902,-57.3556,74.3696,-332.8937,-82.8546
9.46,-0.1292,-1.5858,7.1876,-57.3873,74.5134,-334.0414,-82.8611
9.48,-0.1292,-1.5767,7.1850,-57.4188,74.6571,-335.1898,-82.8675
9.50,-0.1291,-1.5677,7.1824,-57.4502,74.8007,-336.3388,-82.8739
9.52,-0.1290,-1.5587,7.1798,-57.4814,74.9443,-337.4884,-82.8802
9.54,-0.1289,-1.5497,7.1773,-57.5124,75.0879,-338.6387,-82.8865
9.56,-0.1288,-1.5408,7.1747,-57.5432,75.2314,-339.7895,-82.8928
9.58,-0.1287,-1.5320,7.1721,-57.5738,75.3748,-340.9410,-82.8991
9.60,-0.1286,-1.5231,7.1695,-57.6043,75.5182,-342.0931,-82.9053
9.62,-0.1285,-1.5144,7.1670,-57.6346,75.6615,-343.2458,-82.9115
9.64,-0.1284,-1.5056,7.1644,-57.6647,75.8048,-344.3991,-82.9177
9.66,-0.1283,-1.4970,7.1618,-57.6946,75.9481,-345.5530,-82.9239
9.68,-0.1282,-1.4883,7.1593,-57.7244,76.0913,-346.7074,-82.9300
9.70,-0.1281,-1.4797,7.1567,-57.7540,76.2344,-347.8625,-82.9361
9.72,-0.1280,-1.4712,7.1542,-57.7834,76.3775,-349.0182,-82.9421
9.74,-0.1280,-1.4627,7.1516,-57.8127,76.5205,-350.1744,-82.9482
9.76,-0.1279,-1.4542,7.1490,-57.8417,76.6635,-351.3313,-82.9542
9.78,-0.1278,-1.4458,7.1465,-57.8707,76.8064,-352.4887,-82.9602
9.80,-0.1277,-1.4375,7.1439,-57.8994,76.9493,-353.6467,-82.9661
9.82,-0.1276,-1.4291,7.1414,-57.9280,77.0921,-354.8052,-82.9720
9.84,-0.1275,-1.4209,7.1388,-57.9564,77.2349,-355.9644,-82.9779
9.86,-0.1274,-1.4126,7.1363,-57.9847,77.3776,-357.1241,-82.9838
9.88,-0.1273,-1.4044,7.1337,-58.0128,77.5203,-358.2843,-82.9896
9.90,-0.1272,-1.3963,7.1312,-58.0407,77.6629,-359.4451,-82.9954
9.92,-0.1271,-1.3882,7.1286,-58.0684,77.8055,-360.6065,-83.0012
9.94,-0.1270,-1.3801,7.1261,-58.0960,77.9480,-361.7684,-83.0070
9.96,-0.1270,-1.3721,7.1236,-58.1235,78.0905,-362.9309,-83.0127
9.98,-0.1269,-1.3641,7.1210,-58.1508,78.2329,-364.0939,-83.0184
10.00,-0.1268,-1.3562,7.1185,-58.1779,78.3753,-365.2575,-83.0241
10.02,-0.1267,-1.3483,7.1160,-58.2049,78.5176,-366.4216,-83.0298
10.04,-0.1266,-1.3405,7.1134,-58.2317,78.6599,-367.5862,-83.0354
10.06,-0.1265,-1.3327,7.1109,-58.2583,78.8021,-368.7514,-83.0410
10.08,-0.1264,-1.3249,7.1084,-58.2848,78.9443,-369.9171,-83.0466
10.10,-0.1263,-1.3172,7.1058,-58.3112,79.0864,-371.0833,-83.0522
10.12,-0.1262,-1.3095,7.1033,-58.3374,79.2284,-372.2500,-83.0577
10.14,-0.1261,-1.3019,7.1008,-58.3634,79.3705,-373.4173,-83.0632
10.16,-0.1261,-1.2943,7.0983,-58.3893,79.5124,-374.5851,-83.0687
10.18,-0.1260,-1.2867,7.0958,-58.4150,79.6543,-375.7534,-83.0741
10.20,-0.1259,-1.2792,7.0932,-58.4406,79.7962,-376.9222,-83.0796
10.22,-0.1258,-1.2717,7.0907,-58.4660,79.9380,-378.0915,-83.0850
10.24,-0.1257,-1.2643,7.0882,-58.4913,80.0798,-379.2613,-83.0904
10.26,-0.1256,-1.2569,7.0857,-58.5165,80.2215,-380.4317,-83.0957
10.28,-0.1255,-1.2496,7.0832,-58.5415,80.3632,-381.6025,-83.1011
10.30,-0.1254,-1.2422,7.0807,-58.5663,80.5048,-382.7738,-83.1064
10.32,-0.1253,-1.2350,7.0782,-58.5910,80.6463,-383.9456,-83.1117
10.34,-0.1253,-1.2277,7.0757,-58.6156,80.7878,-385.1180,-83.1170
10.36,-0.1252,-1.2205,7.0732,-58.6400,80.9293,-386.2908,-83.1222
10.38,-0.1251,-1.2134,7.0707,-58.6642,81.0707,-387.4640,-83.1274
10.40,-0.1250,-1.2063,7.0682,-58.6884,81.2121,-388.6378,-83.1326
10.42,-0.1249,-1.1992,7.0657,-58.7123,81.3534,-389.8121,-83.1378
10.44,-0.1248,-1.1922,7.0632,-58.7362,81.4947,-390.9868,-83.1430
10.46,-0.1247,-1.1852,7.0607,-58.7599,81.6359,-392.1620,-83.1481
10.48,-0.1246,-1.1782,7.0582,-58.7834,81.7770,-393.3376,-83.1532
10.50,-0.1245,-1.1713,7.0557,-58.8069,81.9181,-394.5138,-83.1583
10.52,-0.1245,-1.1644,7.0532,-58.8302,82.0592,-395.6904,-83.1634
10.54,-0.1244,-1.1575,7.0507,-58.8533,82.2002,-396.8675,-83.1684
10.56,-0.1243,-1.1507,7.0482,-58.8763,82.3412,-398.0450,-83.1735
10.58,-0.1242,-1.1439,7.0457,-58.8992,82.4821,-399.2230,-83.1785
10.60,-0.1241,-1.1372,7.0433,-58.9220,82.6230,-400.4014,-83.1835
10.62,-0.1240,-1.1305,7.0408,-58.9446,82.7638,-401.5803,-83.1884
10.64,-0.1239,-1.1238,7.0383,-58.9670,82.9046,-402.7596,-83.1934
10.66,-0.1238,-1.1172,7.0358,-58.9894,83.0453,-403.9394,-83.1983
10.68,-0.1238,-1.1106,7.0333,-59.0116,83.1859,-405.1197,-83.2032
10.70,-0.1237,-1.1041,7.0309,-59.0337,83.3266,-406.3003,-83.2081
10.72,-0.1236,-1.0976,7.0284,-59.0556,83.4671,-407.4814,-83.2130
10.74,-0.1235,-1.0911,7.0259,-59.0774,83.6076,-408.6630,-83.2178
10.76,-0.1234,-1.0846,7.0235,-59.0991,83.7481,-409.8450,-83.2226
10.78,-0.1233,-1.0782,7.0210,-59.1207,83.8885,-411.0274,-83.2274
10.80,-0.1232,-1.0719,7.0185,-59.1421,84.0289,-412.2102,-83.2322
10.82,-0.1231,-1.0655,7.0161,-59.1635,84.1692,-413.3935,-83.2370
10.84,-0.1231,-1.0592,7.0136,-59.1846,84.3095,-414.5772,-83.2417
10.86,-0.1230,-1.0529,7.0111,-59.2057,84.4497,-415.7613,-83.2465
10.88,-0.1229,-1.0467,7.0087,-59.2266,84.5899,-416.9458,-83.2512
10.90,-0.1228,-1.0405,7.0062,-59.2474,84.7300,-418.1308,-83.2559
10.92,-0.1227,-1.0344,7.0038,-59.2681,84.8701,-419.3161,-83.2606
10.94,-0.1226,-1.0282,7.0013,-59.2887,85.0101,-420.5019,-83.2652
10.96,-0.1225,-1.0221,6.9989,-59.3091,85.1501,-421.6881,-83.2698
10.98,-0.1225,-1.0161,6.9964,-59.3295,85.2900,-422.8747,-83.2745
11.00,-0.1224,-1.0100,6.9940,-59.3497,85.4299,-424.0617,-83.2791
11.02,-0.1223,-1.0040,6.9915,-59.3697,85.5697,-425.2491,-83.2836
11.04,-0.1222,-0.9981,6.9891,-59.3897,85.7095,-426.4369,-83.2882
11.06,-0.1221,-0.9922,6.9866,-59.4095,85.8492,-427.6251,-83.2927
11.08,-0.1220,-0.9863,6.9842,-59.4293,85.9889,-428.8137,-83.2973
11.10,-0.1219,-0.9804,6.9818,-59.4489,86.1286,-430.0026,-83.3018
11.12,-0.1219,-0.9746,6.9793,-59.4684,86.2682,-431.1920,-83.3063
11.14,-0.1218,-0.9688,6.9769,-59.4877,86.4077,-432.3818,-83.3107
11.16,-0.1217,-0.9630,6.9745,-59.5070,86.5472,-433.5719,-83.3152
11.18,-0.1216,-0.9573,6.9720,-59.5262,86.6866,-434.7624,-83.3196
11.20,-0.1215,-0.9516,6.9696,-59.5452,86.8260,-435.9533,-83.3241
11.22,-0.1214,-0.9459,6.9672,-59.5641,86.9654,-437.1446,-83.3285
11.24,-0.1214,-0.9403,6.9647,-59.5829,87.1047,-438.3363,-83.3329
11.26,-0.1213,-0.9347,6.9623,-59.6016,87.2439,-439.5283,-83.3372
11.28,-0.1212,-0.9291,6.9599,-59.6202,87.3831,-440.7207,-83.3416
11.30,-0.1211,-0.9236,6.9575,-59.6387,87.5222,-441.9135,-83.3459
11.32,-0.1210,-0.9181,6.9551,-59.6570,87.6613,-443.1066,-83.3503
11.34,-0.1209,-0.9126,6.9526,-59.6753,87.8004,-444.3001,-83.3546
11.36,-0.1208,-0.9072,6.9502,-59.6934,87.9394,-445.4940,-83.3588
11.38,-0.1208,-0.9017,6.9478,-59.7114,88.0784,-446.6882,-83.3631
11.40,-0.1207,-0.8964,6.9454,-59.7294,88.2173,-447.8828,-83.3674
11.42,-0.1206,-0.8910,6.9430,-59.7472,88.3561,-449.0777,-83.3716
11.44,-0.1205,-0.8857,6.9406,-59.7649,88.4949,-450.2730,-83.3759
11.46,-0.1204,-0.8804,6.9382,-59.7825,88.6337,-451.4687,-83.3801
11.48,-0.1203,-0.8751,6.9357,-59.8000,88.7724,-452.6647,-83.3843
11.50,-0.1203,-0.8699,6.9333,-59.8174,88.9111,-453.8610,-83.3884
11.52,-0.1202,-0.8647,6.9309,-59.8347,89.0497,-455.0577,-83.3926
11.54,-0.1201,-0.8595,6.9285,-59.8519,89.1883,-456.2548,-83.3968
11.56,-0.1200,-0.8544,6.9261,-59.8690,89.3268,-457.4522,-83.4009
11.58,-0.1199,-0.8493,6.9237,-59.8860,89.4653,-458.6499,-83.4050
11.60,-0.1198,-0.8442,6.9213,-59.9029,89.6037,-459.8479,-83.4091
11.62,-0.1198,-0.8391,6.9189,-59.9196,89.7421,-461.0463,-83.4132
11.64,-0.1197,-0.8341,6.9166,-59.9363,89.8804,-462.2450,-83.4173
11.66,-0.1196,-0.8291,6.9142,-59.9529,90.0187,-463.4441,-83.4213
11.68,-0.1195,-0.8241,6.9118,-59.9694,90.1569,-464.6435,-83.4254
11.70,-0.1194,-0.8192,6.9094,-59.9858,90.2951,-465.8432,-83.4294
11.72,-0.1193,-0.8143,6.9070,-60.0021,90.4333,-467.0433,-83.4334
11.74,-0.1193,-0.8094,6.9046,-60.0182,90.5713,-468.2436,-83.4374
11.76,-0.1192,-0.8045,6.9022,-60.0343,90.7094,-469.4443,-83.4414
11.78,-0.1191,-0.7997,6.8998,-60.0503,90.8474,-470.6453,-83.4454
11.80,-0.1190,-0.7949,6.8975,-60.0662,90.9853,-471.8466,-83.4494
11.82,-0.1189,-0.7901,6.8951,-60.0820,91.1232,-473.0483,-83.4533
11.84,-0.1189,-0.7854,6.8927,-60.0977,91.2611,-474.2502,-83.4572
11.86,-0.1188,-0.7807,6.8903,-60.1133,91.3989,-475.4525,-83.4612
11.88,-0.1187,-0.7760,6.8880,-60.1289,91.5367,-476.6551,-83.4651
11.90,-0.1186,-0.7713,6.8856,-60.1443,91.6744,-477.8580,-83.4690
11.92,-0.1185,-0.7667,6.8832,-60.1596,91.8120,-479.0612,-83.4728
11.94,-0.1184,-0.7620,6.8808,-60.1749,91.9497,-480.2646,-83.4767
11.96,-0.1184,-0.7575,6.8785,-60.1900,92.0872,-481.4684,-83.4806
11.98,-0.1183,-0.7529,6.8761,-60.2051,92.2247,-482.6725,-83.4844
12.00,-0.1182,-0.7484,6.8738,-60.2200,92.3622,-483.8770,-83.4882
12.02,-0.1181,-0.7439,6.8714,-60.2349,92.4996,-485.0816,-83.4920
12.04,-0.1180,-0.7394,6.8690,-60.2497,92.6370,-486.2866,-83.4958
12.06,-0.1180,-0.7349,6.8667,-60.2644,92.7744,-487.4919,-83.4996
12.08,-0.1179,-0.7305,6.8643,-60.2790,92.9116,-488.6975,-83.5034
12.10,-0.1178,-0.7261,6.8620,-60.2935,93.0489,-489.9034,-83.5072
12.12,-0.1177,-0.7217,6.8596,-60.3080,93.1861,-491.1095,-83.5109
12.14,-0.1176,-0.7174,6.8572,-60.3223,93.3232,-492.3160,-83.5146
12.16,-0.1176,-0.7130,6.8549,-60.3366,93.4603,-493.5227,-83.5184
12.18,-0.1175,-0.7087,6.8525,-60.3508,93.5974,-494.7297,-83.5221
12.20,-0.1174,-0.7045,6.8502,-60.3648,93.7344,-495.9370,-83.5258
12.22,-0.1173,-0.7002,6.8479,-60.3788,93.8713,-497.1446,-83.5295
12.24,-0.1172,-0.6960,6.8455,-60.3928,94.0082,-498.3525,-83.5331
12.26,-0.1172,-0.6918,6.8432,-60.4066,94.1451,-499.5606,-83.5368
12.28,-0.1171,-0.6876,6.8408,-60.4204,94.2819,-500.7690,-83.5405
12.30,-0.1170,-0.6835,6.8385,-60.4340,94.4187,-501.9777,-83.5441
12.32,-0.1169,-0.6793,6.8361,-60.4476,94.5554,-503.1866,-83.5477
12.34,-0.1168,-0.6752,6.8338,-60.4611,94.6921,-504.3959,-83.5513
12.36,-0.1168,-0.6711,6.8315,-60.4745,94.8287,-505.6053,-83.5549
12.38,-0.1167,-0.6671,6.8291,-60.4879,94.9653,-506.8151,-83.5585
12.40,-0.1166,-0.6630,6.8268,-60.5011,95.1018,-508.0251,-83.5621
12.42,-0.1165,-0.6590,6.8245,-60.5143,95.2383,-509.2354,-83.5657
12.44,-0.1164,-0.6550,6.8221,-60.5274,95.3748,-510.4460,-83.5692
12.46,-0.1164,-0.6511,6.8198,-60.5404,95.5112,-511.6568,-83.5728
12.48,-0.1163,-0.6471,6.8175,-60.5534,95.6475,-512.8678,-83.5763
12.50,-0.1162,-0.6432,6.8152,-60.5663,95.7838,-514.0792,-83.5798
12.52,-0.1161,-0.6393,6.8129,-60.5790,95.9201,-515.2907,-83.5834
12.54,-0.1160,-0.6355,6.8105,-60.5917,96.0563,-516.5026,-83.5869
12.56,-0.1160,-0.6316,6.8082,-60.6044,96.1925,-517.7147,-83.5903
12.58,-0.1159,-0.6278,6.8059,-60.6169,96.3286,-518.9270,-83.5938
12.60,-0.1158,-0.6240,6.8036,-60.6294,96.4646,-520.1396,-83.5973
12.62,-0.1157,-0.6202,6.8013,-60.6418,96.6007,-521.3524,-83.6008
12.64,-0.1156,-0.6164,6.7989,-60.6541,96.7366,-522.5655,-83.6042
12.66,-0.1156,-0.6127,6.7966,-60.6664,96.8726,-523.7788,-83.6076
12.68,-0.1155,-0.6090,6.7943,-60.6786,97.0085,-524.9924,-83.6111
12.70,-0.1154,-0.6053,6.7920,-60.6907,97.1443,-526.2062,-83.6145
12.72,-0.1153,-0.6016,6.7897,-60.7027,97.2801,-527.4203,-83.6179
12.74,-0.1153,-0.5980,6.7874,-60.7147,97.4158,-528.6346,-83.6213
12.76,-0.1152,-0.5943,6.7851,-60.7266,97.5516,-529.8491,-83.6247
12.78,-0.1151,-0.5907,6.7828,-60.7384,97.6872,-531.0639,-83.6280
12.80,-0.1150,-0.5871,6.7805,-60.7501,97.8228,-532.2789,-83.6314
12.82,-0.1149,-0.5836,6.7782,-60.7618,97.9584,-533.4941,-83.6348
12.84,-0.1149,-0.5800,6.7759,-60.7734,98.0939,-534.7096,-83.6381
12.86,-0.1148,-0.5765,6.7736,-60.7849,98.2294,-535.9253,-83.6414
12.88,-0.1147,-0.5730,6.7713,-60.7964,98.3648,-537.1412,-83.6448
12.90,-0.1146,-0.5695,6.7690,-60.8078,98.5002,-538.3574,-83.6481
12.92,-0.1145,-0.5660,6.7667,-60.8191,98.6355,-539.5737,-83.6514
12.94,-0.1145,-0.5626,6.7644,-60.8303,98.7708,-540.7904,-83.6547
12.96,-0.1144,-0.5592,6.7622,-60.8415,98.9060,-542.0072,-83.6580
12.98,-0.1143,-0.5558,6.7599,-60.8526,99.0412,-543.2242,-83.6612
13.00,-0.1142,-0.5524,6.7576,-60.8637,99.1764,-544.4415,-83.6645
13.02,-0.1142,-0.5490,6.7553,-60.8747,99.3115,-545.6590,-83.6678
13.04,-0.1141,-0.5457,6.7530,-60.8856,99.4466,-546.8767,-83.6710
13.06,-0.1140,-0.5424,6.7507,-60.8964,99.5816,-548.0946,-83.6742
13.08,-0.1139,-0.5391,6.7485,-60.9072,99.7165,-549.3128,-83.6775
13.10,-0.1139,-0.5358,6.7462,-60.9179,99.8515,-550.5311,-83.6807
13.12,-0.1138,-0.5325,6.7439,-60.9286,99.9863,-551.7497,-83.6839
13.14,-0.1137,-0.5293,6.7416,-60.9392,100.1212,-552.9685,-83.6871
13.16,-0.1136,-0.5260,6.7394,-60.9497,100.2560,-554.1875,-83.6903
13.18,-0.1135,-0.5228,6.7371,-60.9601,100.3907,-555.4067,-83.6935
13.20,-0.1135,-0.5197,6.7348,-60.9705,100.5254,-556.6261,-83.6966
13.22,-0.1134,-0.5165,6.7326,-60.9809,100.6601,-557.8457,-83.6998
13.24,-0.1133,-0.5133,6.7303,-60.9911,100.7947,-559.0655,-83.7030
13.26,-0.1132,-0.5102,6.7280,-61.0013,100.9292,-560.2856,-83.7061
13.28,-0.1132,-0.5071,6.7258,-61.0115,101.0637,-561.5058,-83.7092
13.30,-0.1131,-0.5040,6.7235,-61.0216,101.1982,-562.7262,-83.7124
13.32,-0.1130,-0.5009,6.7212,-61.0316,101.3326,-563.9469,-83.7155
13.34,-0.1129,-0.4979,6.7190,-61.0415,101.4670,-565.1677,-83.7186
13.36,-0.1129,-0.4948,6.7167,-61.0514,101.6013,-566.3887,-83.7217
13.38,-0.1128,-0.4918,6.7145,-61.0613,101.7356,-567.6099,-83.7248
13.40,-0.1127,-0.4888,6.7122,-61.0710,101.8699,-568.8314,-83.7279
13.42,-0.1126,-0.4858,6.7100,-61.0808,102.0041,-570.0530,-83.7310
13.44,-0.1126,-0.4829,6.7077,-61.0904,102.1382,-571.2748,-83.7340
13.46,-0.1125,-0.4799,6.7055,-61.1000,102.2723,-572.4968,-83.7371
13.48,-0.1124,-0.4770,6.7032,-61.1096,102.4064,-573.7190,-83.7402
13.50,-0.1123,-0.4741,6.7010,-61.1190,102.5404,-574.9414,-83.7432
13.52,-0.1123,-0.4712,6.6987,-61.1285,102.6744,-576.1639,-83.7462
13.54,-0.1122,-0.4683,6.6965,-61.1378,102.8083,-577.3867,-83.7493
13.56,-0.1121,-0.4654,6.6942,-61.1471,102.9422,-578.6096,-83.7523
13.58,-0.1120,-0.4626,6.6920,-61.1564,103.0761,-579.8328,-83.7553
13.60,-0.1120,-0.4597,6.6898,-61.1656,103.2098,-581.0561,-83.7583
13.62,-0.1119,-0.4569,6.6875,-61.1747,103.3436,-582.2796,-83.7613
13.64,-0.1118,-0.4541,6.6853,-61.1838,103.4773,-583.5032,-83.7643
13.66,-0.1117,-0.4514,6.6830,-61.1928,103.6110,-584.7271,-83.7673
13.68,-0.1117,-0.4486,6.6808,-61.2018,103.7446,-585.9511,-83.7702
13.70,-0.1116,-0.4459,6.6786,-61.2107,103.8782,-587.1753,-83.7732
13.72,-0.1115,-0.4431,6.6763,-61.2196,104.0117,-588.3997,-83.7762
13.74,-0.1114,-0.4404,6.6741,-61.2284,104.1452,-589.6243,-83.7791
13.76,-0.1114,-0.4377,6.6719,-61.2371,104.2786,-590.8491,-83.7821
13.78,-0.1113,-0.4350,6.6697,-61.2458,104.4120,-592.0740,-83.7850
13.80,-0.1112,-0.4324,6.6674,-61.2545,104.5453,-593.2991,-83.7879
13.82,-0.1111,-0.4297,6.6652,-61.2631,104.6786,-594.5243,-83.7908
13.84,-0.1111,-0.4271,6.6630,-61.2716,104.8119,-595.7498,-83.7937
13.86,-0.1110,-0.4245,6.6608,-61.2801,104.9451,-596.9754,-83.7966
13.88,-0.1109,-0.4219,6.6586,-61.2885,105.0783,-598.2011,-83.7995
13.90,-0.1108,-0.4193,6.6563,-61.2969,105.2114,-599.4271,-83.8024
13.92,-0.1108,-0.4167,6.6541,-61.3053,105.3445,-600.6532,-83.8053
13.94,-0.1107,-0.4142,6.6519,-61.3136,105.4775,-601.8794,-83.8082
13.96,-0.1106,-0.4116,6.6497,-61.3218,105.6105,-603.1059,-83.8111
13.98,-0.1105,-0.4091,6.6475,-61.3300,105.7435,-604.3325,-83.8139
14.00,-0.1105,-0.4066,6.6453,-61.3381,105.8764,-605.5592,-83.8168
14.02,-0.1104,-0.4041,6.6431,-61.3462,106.0093,-606.7862,-83.8196
14.04,-0.1103,-0.4016,6.6409,-61.3542,106.1421,-608.0132,-83.8225
14.06,-0.1103,-0.3992,6.6387,-61.3622,106.2748,-609.2405,-83.8253
14.08,-0.1102,-0.3967,6.6365,-61.3701,106.4076,-610.4679,-83.8281
14.10,-0.1101,-0.3943,6.6343,-61.3780,106.5403,-611.6955,-83.8309
14.12,-0.1100,-0.3918,6.6321,-61.3859,106.6729,-612.9232,-83.8337
14.14,-0.1100,-0.3894,6.6299,-61.3936,106.8055,-614.1510,-83.8366
14.16,-0.1099,-0.3871,6.6277,-61.4014,106.9380,-615.3791,-83.8394
14.18,-0.1098,-0.3847,6.6255,-61.4091,107.0706,-616.6073,-83.8421
14.20,-0.1097,-0.3823,6.6233,-61.4167,107.2030,-617.8356,-83.8449
14.22,-0.1097,-0.3800,6.6211,-61.4243,107.3354,-619.0641,-83.8477
14.24,-0.1096,-0.3776,6.6189,-61.4319,107.4678,-620.2927,-83.8505
14.26,-0.1095,-0.3753,6.6167,-61.4394,107.6002,-621.5215,-83.8532
14.28,-0.1095,-0.3730,6.6145,-61.4468,107.7324,-622.7504,-83.8560
14.30,-0.1094,-0.3707,6.6123,-61.4543,107.8647,-623.9795,-83.8588
14.32,-0.1093,-0.3684,6.6101,-61.4616,107.9969,-625.2088,-83.8615
14.34,-0.1092,-0.3662,6.6079,-61.4689,108.1291,-626.4381,-83.8642
14.36,-0.1092,-0.3639,6.6058,-61.4762,108.2612,-627.6677,-83.8670
14.38,-0.1091,-0.3617,6.6036,-61.4835,108.3932,-628.8973,-83.8697
14.40,-0.1090,-0.3595,6.6014,-61.4906,108.5253,-630.1271,-83.8724
14.42,-0.1089,-0.3573,6.5992,-61.4978,108.6573,-631.3571,-83.8751
14.44,-0.1089,-0.3551,6.5970,-61.5049,108.7892,-632.5872,-83.8778
14.46,-0.1088,-0.3529,6.5949,-61.5120,108.9211,-633.8174,-83.8805
14.48,-0.1087,-0.3507,6.5927,-61.5190,109.0529,-635.0478,-83.8832
14.50,-0.1087,-0.3485,6.5905,-61.5259,109.1848,-636.2783,-83.8859
14.52,-0.1086,-0.3464,6.5883,-61.5329,109.3165,-637.5090,-83.8886
14.54,-0.1085,-0.3443,6.5862,-61.5397,109.4482,-638.7398,-83.8913
14.56,-0.1084,-0.3421,6.5840,-61.5466,109.5799,-639.9707,-83.8939
14.58,-0.1084,-0.3400,6.5818,-61.5534,109.7116,-641.2018,-83.8966
14.60,-0.1083,-0.3379,6.5797,-61.5602,109.8432,-642.4330,-83.8993
14.62,-0.1082,-0.3359,6.5775,-61.5669,109.9747,-643.6643,-83.9019
14.64,-0.1082,-0.3338,6.5753,-61.5735,110.1062,-644.8958,-83.9046
14.66,-0.1081,-0.3317,6.5732,-61.5802,110.2377,-646.1274,-83.9072
14.68,-0.1080,-0.3297,6.5710,-61.5868,110.3691,-647.3591,-83.9098
14.70,-0.1079,-0.3277,6.5689,-61.5933,110.5005,-648.5910,-83.9125
14.72,-0.1079,-0.3257,6.5667,-61.5998,110.6318,-649.8230,-83.9151
14.74,-0.1078,-0.3236,6.5646,-61.6063,110.7631,-651.0551,-83.9177
14.76,-0.1077,-0.3217,6.5624,-61.6127,110.8943,-652.2874,-83.9203
14.78,-0.1077,-0.3197,6.5602,-61.6191,111.0256,-653.5198,-83.9229
14.80,-0.1076,-0.3177,6.5581,-61.6255,111.1567,-654.7523,-83.9255
14.82,-0.1075,-0.3157,6.5559,-61.6318,111.2878,-655.9849,-83.9281
14.84,-0.1075,-0.3138,6.5538,-61.6381,111.4189,-657.2177,-83.9307
14.86,-0.1074,-0.3119,6.5516,-61.6443,111.5499,-658.4506,-83.9333
14.88,-0.1073,-0.3099,6.5495,-61.6505,111.6809,-659.6836,-83.9359
14.90,-0.1072,-0.3080,6.5474,-61.6567,111.8119,-660.9167,-83.9384
14.92,-0.1072,-0.3061,6.5452,-61.6628,111.9428,-662.1500,-83.9410
14.94,-0.1071,-0.3042,6.5431,-61.6689,112.0736,-663.3833,-83.9436
14.96,-0.1070,-0.3024,6.5409,-61.6749,112.2045,-664.6168,-83.9461
14.98,-0.1070,-0.3005,6.5388,-61.6809,112.3352,-665.8504,-83.9487
15.00,-0.1069,-0.2987,6.5367,-61.6869,112.4660,-667.0842,-83.9512
15.02,-0.1068,-0.2968,6.5345,-61.6929,112.5967,-668.3180,-83.9538
15.04,-0.1067,-0.2950,6.5324,-61.6988,112.7273,-669.5520,-83.9563
15.06,-0.1067,-0.2932,6.5302,-61.7046,112.8579,-670.7861,-83.9588
15.08,-0.1066,-0.2913,6.5281,-61.7104,112.9885,-672.0203,-83.9614
15.10,-0.1065,-0.2896,6.5260,-61.7162,113.1190,-673.2546,-83.9639
15.12,-0.1065,-0.2878,6.5239,-61.7220,113.2495,-674.4891,-83.9664
15.14,-0.1064,-0.2860,6.5217,-61.7277,113.3799,-675.7236,-83.9689
15.16,-0.1063,-0.2842,6.5196,-61.7334,113.5103,-676.9583,-83.9714
15.18,-0.1063,-0.2825,6.5175,-61.7390,113.6407,-678.1931,-83.9739
15.20,-0.1062,-0.2807,6.5154,-61.7447,113.7710,-679.4280,-83.9764
15.22,-0.1061,-0.2790,6.5132,-61.7502,113.9012,-680.6630,-83.9789
15.24,-0.1061,-0.2773,6.5111,-61.7558,114.0314,-681.8981,-83.9814
15.26,-0.1060,-0.2756,6.5090,-61.7613,114.1616,-683.1333,-83.9838
15.28,-0.1059,-0.2739,6.5069,-61.7668,114.2918,-684.3687,-83.9863
15.30,-0.1058,-0.2722,6.5048,-61.7722,114.4219,-685.6041,-83.9888
15.32,-0.1058,-0.2705,6.5026,-61.7776,114.5519,-686.8397,-83.9912
15.34,-0.1057,-0.2688,6.5005,-61.7830,114.6819,-688.0753,-83.9937
15.36,-0.1056,-0.2672,6.4984,-61.7883,114.8119,-689.3111,-83.9962
15.38,-0.1056,-0.2655,6.4963,-61.7937,114.9418,-690.5470,-83.9986
15.40,-0.1055,-0.2639,6.4942,-61.7989,115.0717,-691.7829,-84.0010
15.42,-0.1054,-0.2622,6.4921,-61.8042,115.2015,-693.0190,-84.0035
15.44,-0.1054,-0.2606,6.4900,-61.8094,115.3313,-694.2552,-84.0059
15.46,-0.1053,-0.2590,6.4879,-61.8146,115.4611,-695.4915,-84.0083
15.48,-0.1052,-0.2574,6.4858,-61.8197,115.5908,-696.7279,-84.0108
15.50,-0.1052,-0.2558,6.4837,-61.8248,115.7205,-697.9644,-84.0132
15.52,-0.1051,-0.2542,6.4816,-61.8299,115.8501,-699.2010,-84.0156
15.54,-0.1050,-0.2527,6.4795,-61.8350,115.9797,-700.4377,-84.0180
15.56,-0.1050,-0.2511,6.4774,-61.8400,116.1093,-701.6745,-84.0204
15.58,-0.1049,-0.2495,6.4753,-61.8450,116.2388,-702.9114,-84.0228
15.60,-0.1048,-0.2480,6.4732,-61.8499,116.3682,-704.1484,-84.0252
15.62,-0.1048,-0.2465,6.4711,-61.8549,116.4976,-705.3855,-84.0276
15.64,-0.1047,-0.2449,6.4690,-61.8598,116.6270,-706.6227,-84.0300
15.66,-0.1046,-0.2434,6.4669,-61.8646,116.7564,-707.8600,-84.0324
15.68,-0.1046,-0.2419,6.4648,-61.8695,116.8857,-709.0974,-84.0348
15.70,-0.1045,-0.2404,6.4627,-61.8743,117.0149,-710.3348,-84.0371
15.72,-0.1044,-0.2389,6.4606,-61.8791,117.1441,-711.5724,-84.0395
15.74,-0.1043,-0.2375,6.4585,-61.8838,117.2733,-712.8101,-84.0419
15.76,-0.1043,-0.2360,6.4564,-61.8885,117.4024,-714.0479,-84.0442
15.78,-0.1042,-0.2345,6.4544,-61.8932,117.5315,-715.2857,-84.0466
15.80,-0.1041,-0.2331,6.4523,-61.8979,117.6606,-716.5237,-84.0489
15.82,-0.1041,-0.2316,6.4502,-61.9025,117.7896,-717.7618,-84.0513
15.84,-0.1040,-0.2302,6.4481,-61.9071,117.9185,-718.9999,-84.0536
15.86,-0.1039,-0.2288,6.4460,-61.9117,118.0474,-720.2381,-84.0560
15.88,-0.1039,-0.2274,6.4440,-61.9162,118.1763,-721.4765,-84.0583
15.90,-0.1038,-0.2259,6.4419,-61.9208,118.3052,-722.7149,-84.0606
15.92,-0.1037,-0.2245,6.4398,-61.9253,118.4340,-723.9534,-84.0630
15.94,-0.1037,-0.2232,6.4377,-61.9297,118.5627,-725.1920,-84.0653
15.96,-0.1036,-0.2218,6.4357,-61.9342,118.6914,-726.4306,-84.0676
15.98,-0.1035,-0.2204,6.4336,-61.9386,118.8201,-727.6694,-84.0699
16.00,-0.1035,-0.2190,6.4315,-61.9429,118.9487,-728.9083,-84.0722
16.02,-0.1034,-0.2177,6.4294,-61.9473,119.0773,-730.1472,-84.0745
16.04,-0.1033,-0.2163,6.4274,-61.9516,119.2059,-731.3863,-84.0768
16.06,-0.1033,-0.2150,6.4253,-61.9559,119.3344,-732.6254,-84.0791
16.08,-0.1032,-0.2137,6.4233,-61.9602,119.4628,-733.8646,-84.0814
16.10,-0.1031,-0.2123,6.4212,-61.9644,119.5913,-735.1039,-84.0837
16.12,-0.1031,-0.2110,6.4191,-61.9687,119.7196,-736.3432,-84.0860
16.14,-0.1030,-0.2097,6.4171,-61.9729,119.8480,-737.5827,-84.0883
16.16,-0.1029,-0.2084,6.4150,-61.9770,119.9763,-738.8222,-84.0906
16.18,-0.1029,-0.2071,6.4130,-61.9812,120.1045,-740.0619,-84.0928
16.20,-0.1028,-0.2058,6.4109,-61.9853,120.2328,-741.3016,-84.0951
16.22,-0.1027,-0.2046,6.4088,-61.9894,120.3609,-742.5414,-84.0974
16.24,-0.1027,-0.2033,6.4068,-61.9934,120.4891,-743.7812,-84.0996
16.26,-0.1026,-0.2020,6.4047,-61.9975,120.6172,-745.0212,-84.1019
16.28,-0.1026,-0.2008,6.4027,-62.0015,120.7452,-746.2612,-84.1042
16.30,-0.1025,-0.1995,6.4006,-62.0055,120.8732,-747.5013,-84.1064
16.32,-0.1024,-0.1983,6.3986,-62.0095,121.0012,-748.7415,-84.1087
16.34,-0.1024,-0.1971,6.3965,-62.0134,121.1291,-749.9818,-84.1109
16.36,-0.1023,-0.1958,6.3945,-62.0173,121.2570,-751.2221,-84.1131
16.38,-0.1022,-0.1946,6.3924,-62.0212,121.3849,-752.4625,-84.1154
16.40,-0.1022,-0.1934,6.3904,-62.0251,121.5127,-753.7030,-84.1176
16.42,-0.1021,-0.1922,6.3884,-62.0289,121.6404,-754.9436,-84.1198
16.44,-0.1020,-0.1910,6.3863,-62.0327,121.7682,-756.1843,-84.1221
16.46,-0.1020,-0.1898,6.3843,-62.0365,121.8959,-757.4250,-84.1243
16.48,-0.1019,-0.1887,6.3822,-62.0403,122.0235,-758.6658,-84.1265
16.50,-0.1018,-0.1875,6.3802,-62.0441,122.1511,-759.9067,-84.1287
16.52,-0.1018,-0.1863,6.3782,-62.0478,122.2787,-761.1477,-84.1309
16.54,-0.1017,-0.1852,6.3761,-62.0515,122.4062,-762.3887,-84.1331
16.56,-0.1016,-0.1840,6.3741,-62.0552,122.5337,-763.6298,-84.1353
16.58,-0.1016,-0.1829,6.3721,-62.0588,122.6611,-764.8710,-84.1375
16.60,-0.1015,-0.1818,6.3700,-62.0625,122.7885,-766.1122,-84.1397
16.62,-0.1014,-0.1806,6.3680,-62.0661,122.9159,-767.3535,-84.1419
16.64,-0.1014,-0.1795,6.3660,-62.0697,123.0432,-768.5949,-84.1441
16.66,-0.1013,-0.1784,6.3640,-62.0732,123.1705,-769.8364,-84.1463
16.68,-0.1012,-0.1773,6.3619,-62.0768,123.2977,-771.0779,-84.1485
16.70,-0.1012,-0.1762,6.3599,-62.0803,123.4249,-772.3195,-84.1507
16.72,-0.1011,-0.1751,6.3579,-62.0838,123.5521,-773.5612,-84.1528
16.74,-0.1011,-0.1740,6.3559,-62.0873,123.6792,-774.8030,-84.1550
16.76,-0.1010,-0.1729,6.3538,-62.0907,123.8063,-776.0448,-84.1572
16.78,-0.1009,-0.1718,6.3518,-62.0942,123.9333,-777.2867,-84.1593
16.80,-0.1009,-0.1708,6.3498,-62.0976,124.0603,-778.5286,-84.1615
16.82,-0.1008,-0.1697,6.3478,-62.1010,124.1873,-779.7706,-84.1636
16.84,-0.1007,-0.1687,6.3458,-62.1044,124.3142,-781.0127,-84.1658
16.86,-0.1007,-0.1676,6.3438,-62.1077,124.4410,-782.2549,-84.1680
16.88,-0.1006,-0.1666,6.3418,-62.1110,124.5679,-783.4971,-84.1701
16.90,-0.1005,-0.1655,6.3397,-62.1144,124.6947,-784.7394,-84.1722
16.92,-0.1005,-0.1645,6.3377,-62.1176,124.8214,-785.9817,-84.1744
16.94,-0.1004,-0.1635,6.3357,-62.1209,124.9481,-787.2241,-84.1765
16.96,-0.1004,-0.1625,6.3337,-62.1242,125.0748,-788.4666,-84.1787
16.98,-0.1003,-0.1615,6.3317,-62.1274,125.2015,-789.7092,-84.1808
17.00,-0.1002,-0.1605,6.3297,-62.1306,125.3280,-790.9518,-84.1829
17.02,-0.1002,-0.1595,6.3277,-62.1338,125.4546,-792.1945,-84.1850
17.04,-0.1001,-0.1585,6.3257,-62.1370,125.5811,-793.4372,-84.1872
17.06,-0.1000,-0.1575,6.3237,-62.1401,125.7076,-794.6800,-84.1893
17.08,-0.1000,-0.1565,6.3217,-62.1432,125.8340,-795.9229,-84.1914
17.10,-0.0999,-0.1555,6.3197,-62.1464,125.9604,-797.1658,-84.1935
17.12,-0.0998,-0.1546,6.3177,-62.1494,126.0868,-798.4088,-84.1956
17.14,-0.0998,-0.1536,6.3157,-62.1525,126.2131,-799.6518,-84.1977
17.16,-0.0997,-0.1527,6.3137,-62.1556,126.3394,-800.8949,-84.1998
17.18,-0.0997,-0.1517,6.3117,-62.1586,126.4656,-802.1381,-84.2019
17.20,-0.0996,-0.1508,6.3097,-62.1616,126.5918,-803.3814,-84.2040
17.22,-0.0995,-0.1498,6.3077,-62.1646,126.7179,-804.6246,-84.2061
17.24,-0.0995,-0.1489,6.3058,-62.1676,126.8441,-805.8680,-84.2082
17.26,-0.0994,-0.1480,6.3038,-62.1706,126.9701,-807.1114,-84.2103
17.28,-0.0993,-0.1471,6.3018,-62.1735,127.0962,-808.3549,-84.2124
17.30,-0.0993,-0.1461,6.2998,-62.1764,127.2222,-809.5984,-84.2145
17.32,-0.0992,-0.1452,6.2978,-62.1793,127.3481,-810.8420,-84.2165
17.34,-0.0992,-0.1443,6.2958,-62.1822,127.4740,-812.0856,-84.2186
17.36,-0.0991,-0.1434,6.2938,-62.1851,127.5999,-813.3293,-84.2207
17.38,-0.0990,-0.1425,6.2919,-62.1879,127.7258,-814.5731,-84.2228
17.40,-0.0990,-0.1417,6.2899,-62.1908,127.8516,-815.8169,-84.2248
17.42,-0.0989,-0.1408,6.2879,-62.1936,127.9773,-817.0608,-84.2269
17.44,-0.0988,-0.1399,6.2859,-62.1964,128.1030,-818.3047,-84.2289
17.46,-0.0988,-0.1390,6.2840,-62.1992,128.2287,-819.5487,-84.2310
17.48,-0.0987,-0.1382,6.2820,-62.2019,128.3543,-820.7927,-84.2331
17.50,-0.0987,-0.1373,6.2800,-62.2047,128.4799,-822.0368,-84.2351
17.52,-0.0986,-0.1364,6.2780,-62.2074,128.6055,-823.2810,-84.2372
17.54,-0.0985,-0.1356,6.2761,-62.2101,128.7310,-824.5252,-84.2392
17.56,-0.0985,-0.1348,6.2741,-62.2128,128.8565,-825.7694,-84.2413
17.58,-0.0984,-0.1339,6.2721,-62.2155,128.9820,-827.0137,-84.2433
17.60,-0.0983,-0.1331,6.2702,-62.2181,129.1074,-828.2581,-84.2453
17.62,-0.0983,-0.1323,6.2682,-62.2208,129.2327,-829.5025,-84.2474
17.64,-0.0982,-0.1314,6.2662,-62.2234,129.3580,-830.7470,-84.2494
17.66,-0.0982,-0.1306,6.2643,-62.2260,129.4833,-831.9915,-84.2514
17.68,-0.0981,-0.1298,6.2623,-62.2286,129.6086,-833.2361,-84.2535
17.70,-0.0980,-0.1290,6.2603,-62.2312,129.7338,-834.4807,-84.2555
17.72,-0.0980,-0.1282,6.2584,-62.2338,129.8590,-835.7254,-84.2575
17.74,-0.0979,-0.1274,6.2564,-62.2363,129.9841,-836.9701,-84.2595
17.76,-0.0979,-0.1266,6.2545,-62.2389,130.1092,-838.2149,-84.2615
17.78,-0.0978,-0.1258,6.2525,-62.2414,130.2342,-839.4597,-84.2635
17.80,-0.0977,-0.1250,6.2506,-62.2439,130.3592,-840.7046,-84.2656
17.82,-0.0977,-0.1243,6.2486,-62.2464,130.4842,-841.9495,-84.2676
17.84,-0.0976,-0.1235,6.2467,-62.2488,130.6091,-843.1945,-84.2696
17.86,-0.0976,-0.1227,6.2447,-62.2513,130.7340,-844.4395,-84.2716
17.88,-0.0975,-0.1219,6.2428,-62.2537,130.8589,-845.6846,-84.2736
17.90,-0.0974,-0.1212,6.2408,-62.2561,130.9837,-846.9297,-84.2756
17.92,-0.0974,-0.1204,6.2389,-62.2585,131.1085,-848.1749,-84.2776
17.94,-0.0973,-0.1197,6.2369,-62.2609,131.2332,-849.4201,-84.2796
17.96,-0.0972,-0.1189,6.2350,-62.2633,131.3579,-850.6654,-84.2815
17.98,-0.0972,-0.1182,6.2330,-62.2657,131.4826,-851.9107,-84.2835
18.00,-0.0971,-0.1175,6.2311,-62.2680,131.6072,-853.1560,-84.2855
18.02,-0.0971,-0.1167,6.2291,-62.2704,131.7318,-854.4015,-84.2875
18.04,-0.0970,-0.1160,6.2272,-62.2727,131.8563,-855.6469,-84.2895
18.06,-0.0969,-0.1153,6.2253,-62.2750,131.9808,-856.8924,-84.2914
18.08,-0.0969,-0.1146,6.2233,-62.2773,132.1053,-858.1380,-84.2934
18.10,-0.0968,-0.1138,6.2214,-62.2796,132.2297,-859.3835,-84.2954
18.12,-0.0968,-0.1131,6.2194,-62.2818,132.3541,-860.6292,-84.2974
18.14,-0.0967,-0.1124,6.2175,-62.2841,132.4785,-861.8749,-84.2993
18.16,-0.0966,-0.1117,6.2156,-62.2863,132.6028,-863.1206,-84.3013
18.18,-0.0966,-0.1110,6.2136,-62.2885,132.7270,-864.3664,-84.3033
18.20,-0.0965,-0.1103,6.2117,-62.2907,132.8513,-865.6122,-84.3052
18.22,-0.0965,-0.1097,6.2098,-62.2929,132.9755,-866.8580,-84.3072
18.24,-0.0964,-0.1090,6.2079,-62.2951,133.0996,-868.1039,-84.3091
18.26,-0.0963,-0.1083,6.2059,-62.2973,133.2238,-869.3499,-84.3111
18.28,-0.0963,-0.1076,6.2040,-62.2994,133.3478,-870.5959,-84.3130
18.30,-0.0962,-0.1070,6.2021,-62.3016,133.4719,-871.8419,-84.3150
18.32,-0.0962,-0.1063,6.2002,-62.3037,133.5959,-873.0880,-84.3169
18.34,-0.0961,-0.1056,6.1982,-62.3058,133.7198,-874.3341,-84.3189
18.36,-0.0960,-0.1050,6.1963,-62.3079,133.8438,-875.5803,-84.3208
18.38,-0.0960,-0.1043,6.1944,-62.3100,133.9677,-876.8265,-84.3227
18.40,-0.0959,-0.1037,6.1925,-62.3121,134.0915,-878.0727,-84.3247
18.42,-0.0959,-0.1030,6.1906,-62.3141,134.2153,-879.3190,-84.3266
18.44,-0.0958,-0.1024,6.1886,-62.3162,134.3391,-880.5653,-84.3285
18.46,-0.0957,-0.1017,6.1867,-62.3182,134.4628,-881.8117,-84.3305
18.48,-0.0957,-0.1011,6.1848,-62.3202,134.5865,-883.0581,-84.3324
18.50,-0.0956,-0.1005,6.1829,-62.3222,134.7102,-884.3045,-84.3343
18.52,-0.0956,-0.0998,6.1810,-62.3242,134.8338,-885.5510,-84.3362
18.54,-0.0955,-0.0992,6.1791,-62.3262,134.9574,-886.7975,-84.3381
18.56,-0.0955,-0.0986,6.1772,-62.3282,135.0809,-888.0441,-84.3401
18.58,-0.0954,-0.0980,6.1753,-62.3302,135.2044,-889.2907,-84.3420
18.60,-0.0953,-0.0974,6.1734,-62.3321,135.3279,-890.5373,-84.3439
18.62,-0.0953,-0.0968,6.1715,-62.3340,135.4513,-891.7840,-84.3458
18.64,-0.0952,-0.0962,6.1695,-62.3360,135.5747,-893.0307,-84.3477
18.66,-0.0952,-0.0956,6.1676,-62.3379,135.6981,-894.2775,-84.3496
18.68,-0.0951,-0.0950,6.1657,-62.3398,135.8214,-895.5243,-84.3515
18.70,-0.0950,-0.0944,6.1638,-62.3417,135.9447,-896.7711,-84.3534
18.72,-0.0950,-0.0938,6.1619,-62.3435,136.0679,-898.0180,-84.3553
18.74,-0.0949,-0.0932,6.1600,-62.3454,136.1911,-899.2649,-84.3572
18.76,-0.0949,-0.0926,6.1581,-62.3472,136.3143,-900.5118,-84.3591
18.78,-0.0948,-0.0921,6.1563,-62.3491,136.4374,-901.7588,-84.3610
18.80,-0.0947,-0.0915,6.1544,-62.3509,136.5605,-903.0058,-84.3629
18.82,-0.0947,-0.0909,6.1525,-62.3527,136.6835,-904.2529,-84.3648
18.84,-0.0946,-0.0903,6.1506,-62.3545,136.8065,-905.5000,-84.3666
18.86,-0.0946,-0.0898,6.1487,-62.3563,136.9295,-906.7471,-84.3685
18.88,-0.0945,-0.0892,6.1468,-62.3581,137.0524,-907.9943,-84.3704
18.90,-0.0945,-0.0887,6.1449,-62.3599,137.1753,-909.2415,-84.3723
18.92,-0.0944,-0.0881,6.1430,-62.3617,137.2982,-910.4887,-84.3742
18.94,-0.0943,-0.0876,6.1411,-62.3634,137.4210,-911.7360,-84.3760
18.96,-0.0943,-0.0870,6.1392,-62.3652,137.5438,-912.9833,-84.3779
18.98,-0.0942,-0.0865,6.1374,-62.3669,137.6666,-914.2306,-84.3798
19.00,-0.0942,-0.0859,6.1355,-62.3686,137.7893,-915.4780,-84.3816
19.02,-0.0941,-0.0854,6.1336,-62.3703,137.9119,-916.7254,-84.3835
19.04,-0.0941,-0.0849,6.1317,-62.3720,138.0346,-917.9728,-84.3854
19.06,-0.0940,-0.0843,6.1298,-62.3737,138.1572,-919.2203,-84.3872
19.08,-0.0939,-0.0838,6.1279,-62.3754,138.2797,-920.4678,-84.3891
19.10,-0.0939,-0.0833,6.1261,-62.3770,138.4023,-921.7154,-84.3909
19.12,-0.0938,-0.0828,6.1242,-62.3787,138.5247,-922.9629,-84.3928
19.14,-0.0938,-0.0822,6.1223,-62.3803,138.6472,-924.2105,-84.3947
19.16,-0.0937,-0.0817,6.1204,-62.3820,138.7696,-925.4582,-84.3965
19.18,-0.0936,-0.0812,6.1186,-62.3836,138.8920,-926.7058,-84.3984
19.20,-0.0936,-0.0807,6.1167,-62.3852,139.0143,-927.9535,-84.4002
19.22,-0.0935,-0.0802,6.1148,-62.3868,139.1366,-929.2013,-84.4020
19.24,-0.0935,-0.0797,6.1130,-62.3884,139.2589,-930.4491,-84.4039
19.26,-0.0934,-0.0792,6.1111,-62.3900,139.3811,-931.6969,-84.4057
19.28,-0.0934,-0.0787,6.1092,-62.3916,139.5033,-932.9447,-84.4076
19.30,-0.0933,-0.0782,6.1074,-62.3931,139.6254,-934.1925,-84.4094
19.32,-0.0932,-0.0777,6.1055,-62.3947,139.7475,-935.4404,-84.4112
19.34,-0.0932,-0.0773,6.1036,-62.3962,139.8696,-936.6884,-84.4131
19.36,-0.0931,-0.0768,6.1018,-62.3978,139.9916,-937.9363,-84.4149
19.38,-0.0931,-0.0763,6.0999,-62.3993,140.1136,-939.1843,-84.4167
19.40,-0.0930,-0.0758,6.0980,-62.4008,140.2356,-940.4323,-84.4186
19.42,-0.0930,-0.0753,6.0962,-62.4023,140.3575,-941.6804,-84.4204
19.44,-0.0929,-0.0749,6.0943,-62.4038,140.4794,-942.9284,-84.4222
19.46,-0.0929,-0.0744,6.0925,-62.4053,140.6012,-944.1766,-84.4240
19.48,-0.0928,-0.0739,6.0906,-62.4068,140.7231,-945.4247,-84.4258
19.50,-0.0927,-0.0735,6.0888,-62.4082,140.8448,-946.6729,-84.4277
19.52,-0.0927,-0.0730,6.0869,-62.4097,140.9666,-947.9210,-84.4295
19.54,-0.0926,-0.0726,6.0851,-62.4112,141.0883,-949.1693,-84.4313
19.56,-0.0926,-0.0721,6.0832,-62.4126,141.2099,-950.4175,-84.4331
19.58,-0.0925,-0.0717,6.0814,-62.4140,141.3316,-951.6658,-84.4349
19.60,-0.0925,-0.0712,6.0795,-62.4155,141.4531,-952.9141,-84.4367
19.62,-0.0924,-0.0708,6.0777,-62.4169,141.5747,-954.1624,-84.4385
19.64,-0.0923,-0.0703,6.0758,-62.4183,141.6962,-955.4108,-84.4403
19.66,-0.0923,-0.0699,6.0740,-62.4197,141.8177,-956.6592,-84.4421
19.68,-0.0922,-0.0695,6.0721,-62.4211,141.9391,-957.9076,-84.4439
19.70,-0.0922,-0.0690,6.0703,-62.4224,142.0605,-959.1561,-84.4457
19.72,-0.0921,-0.0686,6.0684,-62.4238,142.1819,-960.4046,-84.4475
19.74,-0.0921,-0.0682,6.0666,-62.4252,142.3032,-961.6531,-84.4493
19.76,-0.0920,-0.0677,6.0648,-62.4265,142.4245,-962.9016,-84.4511
19.78,-0.0920,-0.0673,6.0629,-62.4279,142.5458,-964.1501,-84.4529
19.80,-0.0919,-0.0669,6.0611,-62.4292,142.6670,-965.3987,-84.4547
19.82,-0.0918,-0.0665,6.0592,-62.4306,142.7882,-966.6473,-84.4565
19.84,-0.0918,-0.0661,6.0574,-62.4319,142.9094,-967.8960,-84.4583
19.86,-0.0917,-0.0657,6.0556,-62.4332,143.0305,-969.1446,-84.4601
19.88,-0.0917,-0.0652,6.0537,-62.4345,143.1515,-970.3933,-84.4618
19.90,-0.0916,-0.0648,6.0519,-62.4358,143.2726,-971.6420,-84.4636
19.92,-0.0916,-0.0644,6.0501,-62.4371,143.3936,-972.8908,-84.4654
19.94,-0.0915,-0.0640,6.0482,-62.4384,143.5145,-974.1396,-84.4672
19.96,-0.0915,-0.0636,6.0464,-62.4396,143.6355,-975.3883,-84.4689
19.98,-0.0914,-0.0632,6.0446,-62.4409,143.7564,-976.6372,-84.4707
20.00,-0.0913,-0.0628,6.0428,-62.4422,143.8772,-977.8860,-84.4725
20.02,-0.0913,-0.0624,6.0409,-62.4434,143.9980,-979.1349,-84.4743
20.04,-0.0912,-0.0621,6.0391,-62.4446,144.1188,-980.3838,-84.4760
20.06,-0.0912,-0.0617,6.0373,-62.4459,144.2396,-981.6327,-84.4778
20.08,-0.0911,-0.0613,6.0355,-62.4471,144.3603,-982.8816,-84.4796
20.10,-0.0911,-0.0609,6.0336,-62.4483,144.4809,-984.1306,-84.4813
20.12,-0.0910,-0.0605,6.0318,-62.4495,144.6016,-985.3796,-84.4831
20.14,-0.0910,-0.0601,6.0300,-62.4507,144.7222,-986.6286,-84.4848
20.16,-0.0909,-0.0598,6.0282,-62.4519,144.8427,-987.8776,-84.4866
20.18,-0.0908,-0.0594,6.0264,-62.4531,144.9633,-989.1267,-84.4884
20.20,-0.0908,-0.0590,6.0245,-62.4543,145.0838,-990.3758,-84.4901
20.22,-0.0907,-0.0587,6.0227,-62.4555,145.2042,-991.6249,-84.4919
20.24,-0.0907,-0.0583,6.0209,-62.4566,145.3246,-992.8740,-84.4936
20.26,-0.0906,-0.0579,6.0191,-62.4578,145.4450,-994.1232,-84.4954
20.28,-0.0906,-0.0576,6.0173,-62.4589,145.5654,-995.3724,-84.4971
20.30,-0.0905,-0.0572,6.0155,-62.4601,145.6857,-996.6216,-84.4989
20.32,-0.0905,-0.0568,6.0137,-62.4612,145.8059,-997.8708,-84.5006
20.34,-0.0904,-0.0565,6.0119,-62.4624,145.9262,-999.1200,-84.5023
20.36,-0.0904,-0.0561,6.0101,-62.4635,146.0464,-1000.3693,-84.5041
20.38,-0.0903,-0.0558,6.0083,-62.4646,146.1666,-1001.6186,-84.5058
20.40,-0.0902,-0.0554,6.0064,-62.4657,146.2867,-1002.8679,-84.5076
20.42,-0.0902,-0.0551,6.0046,-62.4668,146.4068,-1004.1173,-84.5093
20.44,-0.0901,-0.0547,6.0028,-62.4679,146.5268,-1005.3666,-84.5110
20.46,-0.0901,-0.0544,6.0010,-62.4690,146.6469,-1006.6160,-84.5128
20.48,-0.0900,-0.0541,5.9992,-62.4701,146.7668,-1007.8654,-84.5145
20.50,-0.0900,-0.0537,5.9974,-62.4711,146.8868,-1009.1148,-84.5162
20.52,-0.0899,-0.0534,5.9956,-62.4722,147.0067,-1010.3643,-84.5179
20.54,-0.0899,-0.0531,5.9938,-62.4733,147.1266,-1011.6137,-84.5197
20.56,-0.0898,-0.0527,5.9920,-62.4743,147.2464,-1012.8632,-84.5214
20.58,-0.0898,-0.0524,5.9903,-62.4754,147.3662,-1014.1127,-84.5231
20.60,-0.0897,-0.0521,5.9885,-62.4764,147.4860,-1015.3622,-84.5248
20.62,-0.0897,-0.0517,5.9867,-62.4775,147.6057,-1016.6118,-84.5266
20.64,-0.0896,-0.0514,5.9849,-62.4785,147.7254,-1017.8614,-84.5283
20.66,-0.0895,-0.0511,5.9831,-62.4795,147.8451,-1019.1110,-84.5300
20.68,-0.0895,-0.0508,5.9813,-62.4805,147.9647,-1020.3606,-84.5317
20.70,-0.0894,-0.0505,5.9795,-62.4815,148.0843,-1021.6102,-84.5334
20.72,-0.0894,-0.0501,5.9777,-62.4825,148.2039,-1022.8598,-84.5351
20.74,-0.0893,-0.0498,5.9759,-62.4835,148.3234,-1024.1095,-84.5368
20.76,-0.0893,-0.0495,5.9741,-62.4845,148.4429,-1025.3592,-84.5386
20.78,-0.0892,-0.0492,5.9724,-62.4855,148.5623,-1026.6089,-84.5403
20.80,-0.0892,-0.0489,5.9706,-62.4865,148.6817,-1027.8586,-84.5420
20.82,-0.0891,-0.0486,5.9688,-62.4875,148.8011,-1029.1084,-84.5437
20.84,-0.0891,-0.0483,5.9670,-62.4884,148.9204,-1030.3582,-84.5454
20.86,-0.0890,-0.0480,5.9652,-62.4894,149.0397,-1031.6080,-84.5471
20.88,-0.0890,-0.0477,5.9635,-62.4903,149.1590,-1032.8578,-84.5488
20.90,-0.0889,-0.0474,5.9617,-62.4913,149.2782,-1034.1076,-84.5505
20.92,-0.0889,-0.0471,5.9599,-62.4922,149.3974,-1035.3574,-84.5522
20.94,-0.0888,-0.0468,5.9581,-62.4932,149.5166,-1036.6073,-84.5539
20.96,-0.0887,-0.0465,5.9563,-62.4941,149.6357,-1037.8572,-84.5556
20.98,-0.0887,-0.0462,5.9546,-62.4950,149.7548,-1039.1071,-84.5572
21.00,-0.0886,-0.0459,5.9528,-62.4959,149.8739,-1040.3570,-84.5589
21.02,-0.0886,-0.0456,5.9510,-62.4968,149.9929,-1041.6069,-84.5606
21.04,-0.0885,-0.0454,5.9493,-62.4977,150.1119,-1042.8569,-84.5623
21.06,-0.0885,-0.0451,5.9475,-62.4987,150.2308,-1044.1069,-84.5640
21.08,-0.0884,-0.0448,5.9457,-62.4995,150.3497,-1045.3568,-84.5657
21.10,-0.0884,-0.0445,5.9440,-62.5004,150.4686,-1046.6069,-84.5674
21.12,-0.0883,-0.0442,5.9422,-62.5013,150.5875,-1047.8569,-84.5690
21.14,-0.0883,-0.0440,5.9404,-62.5022,150.7063,-1049.1069,-84.5707
21.16,-0.0882,-0.0437,5.9387,-62.5031,150.8250,-1050.3570,-84.5724
21.18,-0.0882,-0.0434,5.9369,-62.5039,150.9438,-1051.6071,-84.5741
21.20,-0.0881,-0.0431,5.9351,-62.5048,151.0625,-1052.8572,-84.5758
21.22,-0.0881,-0.0429,5.9334,-62.5057,151.1812,-1054.1073,-84.5774
21.24,-0.0880,-0.0426,5.9316,-62.5065,151.2998,-1055.3574,-84.5791
21.26,-0.0880,-0.0423,5.9298,-62.5074,151.4184,-1056.6076,-84.5808
21.28,-0.0879,-0.0421,5.9281,-62.5082,151.5369,-1057.8577,-84.5824
21.30,-0.0879,-0.0418,5.9263,-62.5090,151.6555,-1059.1079,-84.5841
21.32,-0.0878,-0.0415,5.9246,-62.5099,151.7740,-1060.3581,-84.5858
21.34,-0.0878,-0.0413,5.9228,-62.5107,151.8924,-1061.6083,-84.5874
21.36,-0.0877,-0.0410,5.9211,-62.5115,152.0108,-1062.8585,-84.5891
21.38,-0.0876,-0.0408,5.9193,-62.5123,152.1292,-1064.1088,-84.5908
21.40,-0.0876,-0.0405,5.9176,-62.5131,152.2476,-1065.3590,-84.5924
21.42,-0.0875,-0.0403,5.9158,-62.5139,152.3659,-1066.6093,-84.5941
21.44,-0.0875,-0.0400,5.9141,-62.5147,152.4842,-1067.8596,-84.5958
21.46,-0.0874,-0.0398,5.9123,-62.5155,152.6024,-1069.1099,-84.5974
21.48,-0.0874,-0.0395,5.9106,-62.5163,152.7206,-1070.3603,-84.5991
21.50,-0.0873,-0.0393,5.9088,-62.5171,152.8388,-1071.6106,-84.6007
21.52,-0.0873,-0.0390,5.9071,-62.5179,152.9570,-1072.8610,-84.6024
21.54,-0.0872,-0.0388,5.9053,-62.5187,153.0751,-1074.1113,-84.6040
21.56,-0.0872,-0.0385,5.9036,-62.5194,153.1931,-1075.3617,-84.6057
21.58,-0.0871,-0.0383,5.9018,-62.5202,153.3112,-1076.6121,-84.6073
21.60,-0.0871,-0.0381,5.9001,-62.5210,153.4292,-1077.8625,-84.6090
21.62,-0.0870,-0.0378,5.8984,-62.5217,153.5471,-1079.1130,-84.6106
21.64,-0.0870,-0.0376,5.8966,-62.5225,153.6651,-1080.3634,-84.6123
21.66,-0.0869,-0.0373,5.8949,-62.5232,153.7830,-1081.6139,-84.6139
21.68,-0.0869,-0.0371,5.8931,-62.5240,153.9008,-1082.8644,-84.6155
21.70,-0.0868,-0.0369,5.8914,-62.5247,154.0187,-1084.1149,-84.6172
21.72,-0.0868,-0.0367,5.8897,-62.5254,154.1364,-1085.3654,-84.6188
21.74,-0.0867,-0.0364,5.8879,-62.5262,154.2542,-1086.6159,-84.6205
21.76,-0.0867,-0.0362,5.8862,-62.5269,154.3719,-1087.8664,-84.6221
21.78,-0.0866,-0.0360,5.8845,-62.5276,154.4896,-1089.1170,-84.6237
21.80,-0.0866,-0.0357,5.8827,-62.5283,154.6073,-1090.3676,-84.6254
21.82,-0.0865,-0.0355,5.8810,-62.5290,154.7249,-1091.6181,-84.6270
21.84,-0.0865,-0.0353,5.8793,-62.5297,154.8425,-1092.8687,-84.6286
21.86,-0.0864,-0.0351,5.8776,-62.5304,154.9600,-1094.1193,-84.6303
21.88,-0.0864,-0.0349,5.8758,-62.5311,155.0775,-1095.3700,-84.6319
21.90,-0.0863,-0.0346,5.8741,-62.5318,155.1950,-1096.6206,-84.6335
21.92,-0.0863,-0.0344,5.8724,-62.5325,155.3125,-1097.8713,-84.6351
21.94,-0.0862,-0.0342,5.8707,-62.5332,155.4299,-1099.1219,-84.6368
21.96,-0.0862,-0.0340,5.8689,-62.5339,155.5473,-1100.3726,-84.6384
21.98,-0.0861,-0.0338,5.8672,-62.5346,155.6646,-1101.6233,-84.6400
22.00,-0.0861,-0.0336,5.8655,-62.5352,155.7819,-1102.8740,-84.6416
22.02,-0.0860,-0.0334,5.8638,-62.5359,155.8992,-1104.1247,-84.6432
22.04,-0.0860,-0.0332,5.8620,-62.5366,156.0164,-1105.3754,-84.6449
22.06,-0.0859,-0.0329,5.8603,-62.5372,156.1336,-1106.6262,-84.6465
22.08,-0.0859,-0.0327,5.8586,-62.5379,156.2508,-1107.8769,-84.6481
22.10,-0.0858,-0.0325,5.8569,-62.5385,156.3680,-1109.1277,-84.6497
22.12,-0.0858,-0.0323,5.8552,-62.5392,156.4851,-1110.3785,-84.6513
22.14,-0.0857,-0.0321,5.8535,-62.5398,156.6021,-1111.6293,-84.6529
22.16,-0.0857,-0.0319,5.8518,-62.5405,156.7192,-1112.8801,-84.6545
22.18,-0.0856,-0.0317,5.8500,-62.5411,156.8362,-1114.1309,-84.6562
22.20,-0.0856,-0.0315,5.8483,-62.5417,156.9531,-1115.3818,-84.6578
22.22,-0.0855,-0.0313,5.8466,-62.5424,157.0701,-1116.6326,-84.6594
22.24,-0.0855,-0.0311,5.8449,-62.5430,157.1870,-1117.8835,-84.6610
22.26,-0.0854,-0.0309,5.8432,-62.5436,157.3038,-1119.1343,-84.6626
22.28,-0.0854,-0.0307,5.8415,-62.5442,157.4207,-1120.3852,-84.6642
22.30,-0.0853,-0.0306,5.8398,-62.5448,157.5375,-1121.6361,-84.6658
22.32,-0.0853,-0.0304,5.8381,-62.5454,157.6542,-1122.8870,-84.6674
22.34,-0.0852,-0.0302,5.8364,-62.5460,157.7709,-1124.1379,-84.6690
22.36,-0.0852,-0.0300,5.8347,-62.5466,157.8876,-1125.3889,-84.6706
22.38,-0.0851,-0.0298,5.8330,-62.5472,158.0043,-1126.6398,-84.6722
22.40,-0.0851,-0.0296,5.8313,-62.5478,158.1209,-1127.8908,-84.6738
22.42,-0.0850,-0.0294,5.8296,-62.5484,158.2375,-1129.1417,-84.6754
22.44,-0.0850,-0.0292,5.8279,-62.5490,158.3541,-1130.3927,-84.6770
22.46,-0.0849,-0.0291,5.8262,-62.5496,158.4706,-1131.6437,-84.6785
22.48,-0.0849,-0.0289,5.8245,-62.5501,158.5871,-1132.8947,-84.6801
22.50,-0.0848,-0.0287,5.8228,-62.5507,158.7035,-1134.1457,-84.6817
22.52,-0.0848,-0.0285,5.8211,-62.5513,158.8200,-1135.3968,-84.6833
22.54,-0.0847,-0.0283,5.8194,-62.5519,158.9363,-1136.6478,-84.6849
22.56,-0.0847,-0.0282,5.8177,-62.5524,159.0527,-1137.8988,-84.6865
22.58,-0.0846,-0.0280,5.8160,-62.5530,159.1690,-1139.1499,-84.6881
22.60,-0.0846,-0.0278,5.8143,-62.5535,159.2853,-1140.4010,-84.6897
22.62,-0.0845,-0.0276,5.8126,-62.5541,159.4016,-1141.6521,-84.6912
22.64,-0.0845,-0.0275,5.8109,-62.5546,159.5178,-1142.9032,-84.6928
22.66,-0.0844,-0.0273,5.8092,-62.5552,159.6340,-1144.1543,-84.6944
22.68,-0.0844,-0.0271,5.8076,-62.5557,159.7501,-1145.4054,-84.6960
22.70,-0.0843,-0.0270,5.8059,-62.5563,159.8662,-1146.6565,-84.6975
22.72,-0.0843,-0.0268,5.8042,-62.5568,159.9823,-1147.9076,-84.6991
22.74,-0.0842,-0.0266,5.8025,-62.5573,160.0984,-1149.1588,-84.7007
22.76,-0.0842,-0.0264,5.8008,-62.5579,160.2144,-1150.4099,-84.7023
22.78,-0.0841,-0.0263,5.7991,-62.5584,160.3304,-1151.6611,-84.7038
22.80,-0.0841,-0.0261,5.7975,-62.5589,160.4463,-1152.9123,-84.7054
22.82,-0.0840,-0.0260,5.7958,-62.5594,160.5622,-1154.1635,-84.7070
22.84,-0.0840,-0.0258,5.7941,-62.5599,160.6781,-1155.4147,-84.7086
22.86,-0.0839,-0.0256,5.7924,-62.5605,160.7940,-1156.6659,-84.7101
22.88,-0.0839,-0.0255,5.7907,-62.5610,160.9098,-1157.9171,-84.7117
22.90,-0.0838,-0.0253,5.7891,-62.5615,161.0256,-1159.1683,-84.7132
22.92,-0.0838,-0.0252,5.7874,-62.5620,161.1413,-1160.4196,-84.7148
22.94,-0.0837,-0.0250,5.7857,-62.5625,161.2570,-1161.6708,-84.7164
22.96,-0.0837,-0.0248,5.7840,-62.5630,161.3727,-1162.9221,-84.7179
22.98,-0.0836,-0.0247,5.7824,-62.5635,161.4883,-1164.1733,-84.7195
23.00,-0.0836,-0.0245,5.7807,-62.5640,161.6040,-1165.4246,-84.7211
23.02,-0.0835,-0.0244,5.7790,-62.5644,161.7195,-1166.6759,-84.7226
23.04,-0.0835,-0.0242,5.7774,-62.5649,161.8351,-1167.9272,-84.7242
23.06,-0.0834,-0.0241,5.7757,-62.5654,161.9506,-1169.1785,-84.7257
23.08,-0.0834,-0.0239,5.7740,-62.5659,162.0661,-1170.4298,-84.7273
23.10,-0.0833,-0.0238,5.7723,-62.5664,162.1815,-1171.6812,-84.7288
23.12,-0.0833,-0.0236,5.7707,-62.5668,162.2969,-1172.9325,-84.7304
23.14,-0.0833,-0.0235,5.7690,-62.5673,162.4123,-1174.1839,-84.7319
23.16,-0.0832,-0.0233,5.7674,-62.5678,162.5277,-1175.4352,-84.7335
23.18,-0.0832,-0.0232,5.7657,-62.5682,162.6430,-1176.6866,-84.7350
23.20,-0.0831,-0.0230,5.7640,-62.5687,162.7583,-1177.9379,-84.7366
23.22,-0.0831,-0.0229,5.7624,-62.5692,162.8735,-1179.1893,-84.7381
23.24,-0.0830,-0.0228,5.7607,-62.5696,162.9887,-1180.4407,-84.7397
23.26,-0.0830,-0.0226,5.7590,-62.5701,163.1039,-1181.6921,-84.7412
23.28,-0.0829,-0.0225,5.7574,-62.5705,163.2191,-1182.9435,-84.7428
23.30,-0.0829,-0.0223,5.7557,-62.5710,163.3342,-1184.1950,-84.7443
23.32,-0.0828,-0.0222,5.7541,-62.5714,163.4492,-1185.4464,-84.7459
23.34,-0.0828,-0.0220,5.7524,-62.5718,163.5643,-1186.6978,-84.7474
23.36,-0.0827,-0.0219,5.7508,-62.5723,163.6793,-1187.9493,-84.7489
23.38,-0.0827,-0.0218,5.7491,-62.5727,163.7943,-1189.2007,-84.7505
23.40,-0.0826,-0.0216,5.7475,-62.5732,163.9092,-1190.4522,-84.7520
23.42,-0.0826,-0.0215,5.7458,-62.5736,164.0242,-1191.7037,-84.7535
23.44,-0.0825,-0.0214,5.7442,-62.5740,164.1390,-1192.9551,-84.7551
23.46,-0.0825,-0.0212,5.7425,-62.5744,164.2539,-1194.2066,-84.7566
23.48,-0.0824,-0.0211,5.7409,-62.5749,164.3687,-1195.4581,-84.7581
23.50,-0.0824,-0.0210,5.7392,-62.5753,164.4835,-1196.7096,-84.7597
23.52,-0.0823,-0.0208,5.7376,-62.5757,164.5982,-1197.9611,-84.7612
23.54,-0.0823,-0.0207,5.7359,-62.5761,164.7130,-1199.2127,-84.7627
23.56,-0.0823,-0.0206,5.7343,-62.5765,164.8276,-1200.4642,-84.7643
23.58,-0.0822,-0.0204,5.7326,-62.5769,164.9423,-1201.7157,-84.7658
23.60,-0.0822,-0.0203,5.7310,-62.5773,165.0569,-1202.9673,-84.7673
23.62,-0.0821,-0.0202,5.7293,-62.5777,165.1715,-1204.2188,-84.7688
23.64,-0.0821,-0.0201,5.7277,-62.5781,165.2861,-1205.4704,-84.7704
23.66,-0.0820,-0.0199,5.7261,-62.5785,165.4006,-1206.7220,-84.7719
23.68,-0.0820,-0.0198,5.7244,-62.5789,165.5151,-1207.9735,-84.7734
23.70,-0.0819,-0.0197,5.7228,-62.5793,165.6295,-1209.2251,-84.7749
23.72,-0.0819,-0.0196,5.7211,-62.5797,165.7440,-1210.4767,-84.7764
23.74,-0.0818,-0.0194,5.7195,-62.5801,165.8583,-1211.7283,-84.7780
23.76,-0.0818,-0.0193,5.7179,-62.5805,165.9727,-1212.9799,-84.7795
23.78,-0.0817,-0.0192,5.7162,-62.5809,166.0870,-1214.2316,-84.7810
23.80,-0.0817,-0.0191,5.7146,-62.5813,166.2013,-1215.4832,-84.7825
23.82,-0.0816,-0.0190,5.7130,-62.5816,166.3156,-1216.7348,-84.7840
23.84,-0.0816,-0.0188,5.7113,-62.5820,166.4298,-1217.9865,-84.7855
23.86,-0.0815,-0.0187,5.7097,-62.5824,166.5440,-1219.2381,-84.7870
23.88,-0.0815,-0.0186,5.7081,-62.5828,166.6582,-1220.4898,-84.7886
23.90,-0.0815,-0.0185,5.7064,-62.5831,166.7723,-1221.7414,-84.7901
23.92,-0.0814,-0.0184,5.7048,-62.5835,166.8864,-1222.9931,-84.7916
23.94,-0.0814,-0.0183,5.7032,-62.5839,167.0004,-1224.2448,-84.7931
23.96,-0.0813,-0.0181,5.7016,-62.5842,167.1145,-1225.4964,-84.7946
23.98,-0.0813,-0.0180,5.6999,-62.5846,167.2285,-1226.7481,-84.7961
24.00,-0.0812,-0.0179,5.6983,-62.5849,167.3424,-1227.9998,-84.7976
24.02,-0.0812,-0.0178,5.6967,-62.5853,167.4564,-1229.2515,-84.7991
24.04,-0.0811,-0.0177,5.6951,-62.5857,167.5703,-1230.5033,-84.8006
24.06,-0.0811,-0.0176,5.6935,-62.5860,167.6841,-1231.7550,-84.8021
24.08,-0.0810,-0.0175,5.6918,-62.5864,167.7980,-1233.0067,-84.8036
24.10,-0.0810,-0.0174,5.6902,-62.5867,167.9118,-1234.2584,-84.8051
24.12,-0.0809,-0.0173,5.6886,-62.5871,168.0256,-1235.5102,-84.8066
24.14,-0.0809,-0.0172,5.6870,-62.5874,168.1393,-1236.7619,-84.8081
24.16,-0.0809,-0.0170,5.6854,-62.5877,168.2530,-1238.0137,-84.8096
24.18,-0.0808,-0.0169,5.6837,-62.5881,168.3667,-1239.2654,-84.8111
24.20,-0.0808,-0.0168,5.6821,-62.5884,168.4803,-1240.5172,-84.8126
24.22,-0.0807,-0.0167,5.6805,-62.5887,168.5939,-1241.7690,-84.8141
24.24,-0.0807,-0.0166,5.6789,-62.5891,168.7075,-1243.0208,-84.8156
24.26,-0.0806,-0.0165,5.6773,-62.5894,168.8211,-1244.2726,-84.8171
24.28,-0.0806,-0.0164,5.6757,-62.5897,168.9346,-1245.5244,-84.8186
24.30,-0.0805,-0.0163,5.6741,-62.5901,169.0481,-1246.7762,-84.8200
24.32,-0.0805,-0.0162,5.6725,-62.5904,169.1615,-1248.0280,-84.8215
24.34,-0.0804,-0.0161,5.6708,-62.5907,169.2749,-1249.2798,-84.8230
24.36,-0.0804,-0.0160,5.6692,-62.5910,169.3883,-1250.5316,-84.8245
24.38,-0.0804,-0.0159,5.6676,-62.5913,169.5017,-1251.7834,-84.8260
24.40,-0.0803,-0.0158,5.6660,-62.5917,169.6150,-1253.0353,-84.8275
24.42,-0.0803,-0.0157,5.6644,-62.5920,169.7283,-1254.2871,-84.8290
24.44,-0.0802,-0.0156,5.6628,-62.5923,169.8415,-1255.5389,-84.8304
24.46,-0.0802,-0.0155,5.6612,-62.5926,169.9547,-1256.7908,-84.8319
24.48,-0.0801,-0.0154,5.6596,-62.5929,170.0679,-1258.0427,-84.8334
24.50,-0.0801,-0.0153,5.6580,-62.5932,170.1811,-1259.2945,-84.8349
24.52,-0.0800,-0.0152,5.6564,-62.5935,170.2942,-1260.5464,-84.8364
24.54,-0.0800,-0.0151,5.6548,-62.5938,170.4073,-1261.7983,-84.8378
24.56,-0.0799,-0.0150,5.6532,-62.5941,170.5204,-1263.0501,-84.8393
24.58,-0.0799,-0.0149,5.6516,-62.5944,170.6334,-1264.3020,-84.8408
24.60,-0.0799,-0.0148,5.6500,-62.5947,170.7464,-1265.5539,-84.8423
24.62,-0.0798,-0.0148,5.6484,-62.5950,170.8594,-1266.8058,-84.8437
24.64,-0.0798,-0.0147,5.6468,-62.5953,170.9723,-1268.0577,-84.8452
24.66,-0.0797,-0.0146,5.6452,-62.5956,171.0852,-1269.3096,-84.8467
24.68,-0.0797,-0.0145,5.6436,-62.5959,171.1981,-1270.5616,-84.8482
24.70,-0.0796,-0.0144,5.6420,-62.5962,171.3109,-1271.8135,-84.8496
24.72,-0.0796,-0.0143,5.6404,-62.5965,171.4237,-1273.0654,-84.8511
24.74,-0.0795,-0.0142,5.6389,-62.5967,171.5365,-1274.3174,-84.8526
24.76,-0.0795,-0.0141,5.6373,-62.5970,171.6493,-1275.5693,-84.8540
24.78,-0.0794,-0.0140,5.6357,-62.5973,171.7620,-1276.8212,-84.8555
24.80,-0.0794,-0.0139,5.6341,-62.5976,171.8747,-1278.0732,-84.8570
24.82,-0.0794,-0.0139,5.6325,-62.5979,171.9873,-1279.3252,-84.8584
24.84,-0.0793,-0.0138,5.6309,-62.5981,172.0999,-1280.5771,-84.8599
24.86,-0.0793,-0.0137,5.6293,-62.5984,172.2125,-1281.8291,-84.8613
24.88,-0.0792,-0.0136,5.6277,-62.5987,172.3251,-1283.0811,-84.8628
24.90,-0.0792,-0.0135,5.6262,-62.5990,172.4376,-1284.3330,-84.8643
24.92,-0.0791,-0.0134,5.6246,-62.5992,172.5501,-1285.5850,-84.8657
24.94,-0.0791,-0.0133,5.6230,-62.5995,172.6626,-1286.8370,-84.8672
24.96,-0.0790,-0.0133,5.6214,-62.5998,172.7750,-1288.0890,-84.8686
24.98,-0.0790,-0.0132,5.6198,-62.6000,172.8874,-1289.3410,-84.8701
25.00,-0.0790,-0.0131,5.6183,-62.6003,172.9997,-1290.5930,-84.8716
25.02,-0.0789,-0.0130,5.6167,-62.6005,173.1121,-1291.8450,-84.8730
25.04,-0.0789,-0.0129,5.6151,-62.6008,173.2244,-1293.0970,-84.8745
25.06,-0.0788,-0.0128,5.6135,-62.6011,173.3366,-1294.3491,-84.8759
25.08,-0.0788,-0.0128,5.6120,-62.6013,173.4489,-1295.6011,-84.8774
25.10,-0.0787,-0.0127,5.6104,-62.6016,173.5611,-1296.8531,-84.8788
25.12,-0.0787,-0.0126,5.6088,-62.6018,173.6733,-1298.1052,-84.8803
25.14,-0.0786,-0.0125,5.6072,-62.6021,173.7854,-1299.3572,-84.8817
25.16,-0.0786,-0.0125,5.6057,-62.6023,173.8975,-1300.6092,-84.8832
25.18,-0.0786,-0.0124,5.6041,-62.6026,174.0096,-1301.8613,-84.8846
25.20,-0.0785,-0.0123,5.6025,-62.6028,174.1217,-1303.1133,-84.8860
25.22,-0.0785,-0.0122,5.6009,-62.6031,174.2337,-1304.3654,-84.8875
25.24,-0.0784,-0.0121,5.5994,-62.6033,174.3457,-1305.6175,-84.8889
25.26,-0.0784,-0.0121,5.5978,-62.6035,174.4576,-1306.8695,-84.8904
25.28,-0.0783,-0.0120,5.5962,-62.6038,174.5695,-1308.1216,-84.8918
25.30,-0.0783,-0.0119,5.5947,-62.6040,174.6814,-1309.3737,-84.8933
25.32,-0.0783,-0.0118,5.5931,-62.6043,174.7933,-1310.6258,-84.8947
25.34,-0.0782,-0.0118,5.5915,-62.6045,174.9051,-1311.8779,-84.8961
25.36,-0.0782,-0.0117,5.5900,-62.6047,175.0169,-1313.1300,-84.8976
25.38,-0.0781,-0.0116,5.5884,-62.6050,175.1287,-1314.3821,-84.8990
25.40,-0.0781,-0.0115,5.5869,-62.6052,175.2404,-1315.6342,-84.9005
25.42,-0.0780,-0.0115,5.5853,-62.6054,175.3521,-1316.8863,-84.9019
25.44,-0.0780,-0.0114,5.5837,-62.6056,175.4638,-1318.1384,-84.9033
25.46,-0.0779,-0.0113,5.5822,-62.6059,175.5755,-1319.3905,-84.9048
25.48,-0.0779,-0.0113,5.5806,-62.6061,175.6871,-1320.6426,-84.9062
25.50,-0.0779,-0.0112,5.5791,-62.6063,175.7987,-1321.8948,-84.9076
25.52,-0.0778,-0.0111,5.5775,-62.6065,175.9102,-1323.1469,-84.9091
25.54,-0.0778,-0.0111,5.5760,-62.6068,176.0217,-1324.3990,-84.9105
25.56,-0.0777,-0.0110,5.5744,-62.6070,176.1332,-1325.6512,-84.9119
25.58,-0.0777,-0.0109,5.5728,-62.6072,176.2447,-1326.9033,-84.9133
25.60,-0.0776,-0.0108,5.5713,-62.6074,176.3561,-1328.1555,-84.9148
25.62,-0.0776,-0.0108,5.5697,-62.6076,176.4675,-1329.4076,-84.9162
25.64,-0.0776,-0.0107,5.5682,-62.6079,176.5789,-1330.6598,-84.9176
25.66,-0.0775,-0.0106,5.5666,-62.6081,176.6902,-1331.9119,-84.9190
25.68,-0.0775,-0.0106,5.5651,-62.6083,176.8015,-1333.1641,-84.9205
25.70,-0.0774,-0.0105,5.5635,-62.6085,176.9128,-1334.4163,-84.9219
25.72,-0.0774,-0.0104,5.5620,-62.6087,177.0240,-1335.6684,-84.9233
25.74,-0.0773,-0.0104,5.5604,-62.6089,177.1352,-1336.9206,-84.9247
25.76,-0.0773,-0.0103,5.5589,-62.6091,177.2464,-1338.1728,-84.9262
25.78,-0.0773,-0.0102,5.5574,-62.6093,177.3575,-1339.4250,-84.9276
25.80,-0.0772,-0.0102,5.5558,-62.6095,177.4687,-1340.6772,-84.9290
25.82,-0.0772,-0.0101,5.5543,-62.6097,177.5797,-1341.9294,-84.9304
25.84,-0.0771,-0.0101,5.5527,-62.6099,177.6908,-1343.1816,-84.9318
25.86,-0.0771,-0.0100,5.5512,-62.6101,177.8018,-1344.4338,-84.9332
25.88,-0.0770,-0.0099,5.5496,-62.6103,177.9128,-1345.6860,-84.9347
25.90,-0.0770,-0.0099,5.5481,-62.6105,178.0238,-1346.9382,-84.9361
25.92,-0.0770,-0.0098,5.5466,-62.6107,178.1347,-1348.1904,-84.9375
25.94,-0.0769,-0.0097,5.5450,-62.6109,178.2456,-1349.4426,-84.9389
25.96,-0.0769,-0.0097,5.5435,-62.6111,178.3565,-1350.6948,-84.9403
25.98,-0.0768,-0.0096,5.5420,-62.6113,178.4673,-1351.9471,-84.9417
26.00,-0.0768,-0.0096,5.5404,-62.6115,178.5781,-1353.1993,-84.9431
26.02,-0.0767,-0.0095,5.5389,-62.6117,178.6889,-1354.4515,-84.9445
26.04,-0.0767,-0.0094,5.5373,-62.6119,178.7996,-1355.7038,-84.9460
26.06,-0.0767,-0.0094,5.5358,-62.6121,178.9104,-1356.9560,-84.9474
26.08,-0.0766,-0.0093,5.5343,-62.6122,179.0210,-1358.2083,-84.9488
26.10,-0.0766,-0.0093,5.5328,-62.6124,179.1317,-1359.4605,-84.9502
26.12,-0.0765,-0.0092,5.5312,-62.6126,179.2423,-1360.7128,-84.9516
26.14,-0.0765,-0.0092,5.5297,-62.6128,179.3529,-1361.9650,-84.9530
26.16,-0.0764,-0.0091,5.5282,-62.6130,179.4635,-1363.2173,-84.9544
26.18,-0.0764,-0.0090,5.5266,-62.6132,179.5740,-1364.4695,-84.9558
26.20,-0.0764,-0.0090,5.5251,-62.6133,179.6845,-1365.7218,-84.9572
26.22,-0.0763,-0.0089,5.5236,-62.6135,179.7950,-1366.9741,-84.9586
26.24,-0.0763,-0.0089,5.5221,-62.6137,179.9054,-1368.2263,-84.9600
26.26,-0.0762,-0.0088,5.5205,-62.6139,180.0158,-1369.4786,-84.9614
26.28,-0.0762,-0.0088,5.5190,-62.6140,180.1262,-1370.7309,-84.9628
26.30,-0.0761,-0.0087,5.5175,-62.6142,180.2366,-1371.9832,-84.9642
26.32,-0.0761,-0.0087,5.5160,-62.6144,180.3469,-1373.2355,-84.9656
26.34,-0.0761,-0.0086,5.5144,-62.6146,180.4572,-1374.4878,-84.9670
26.36,-0.0760,-0.0085,5.5129,-62.6147,180.5674,-1375.7401,-84.9684
26.38,-0.0760,-0.0085,5.5114,-62.6149,180.6777,-1376.9924,-84.9698
26.40,-0.0759,-0.0084,5.5099,-62.6151,180.7879,-1378.2447,-84.9711
26.42,-0.0759,-0.0084,5.5084,-62.6152,180.8980,-1379.4970,-84.9725
26.44,-0.0759,-0.0083,5.5068,-62.6154,181.0082,-1380.7493,-84.9739
26.46,-0.0758,-0.0083,5.5053,-62.6156,181.1183,-1382.0016,-84.9753
26.48,-0.0758,-0.0082,5.5038,-62.6157,181.2284,-1383.2539,-84.9767
26.50,-0.0757,-0.0082,5.5023,-62.6159,181.3384,-1384.5062,-84.9781
26.52,-0.0757,-0.0081,5.5008,-62.6161,181.4484,-1385.7585,-84.9795
26.54,-0.0756,-0.0081,5.4993,-62.6162,181.5584,-1387.0109,-84.9809
26.56,-0.0756,-0.0080,5.4978,-62.6164,181.6684,-1388.2632,-84.9823
26.58,-0.0756,-0.0080,5.4963,-62.6165,181.7783,-1389.5155,-84.9836
26.60,-0.0755,-0.0079,5.4947,-62.6167,181.8882,-1390.7679,-84.9850
26.62,-0.0755,-0.0079,5.4932,-62.6169,181.9980,-1392.0202,-84.9864
26.64,-0.0754,-0.0078,5.4917,-62.6170,182.1079,-1393.2725,-84.9878
26.66,-0.0754,-0.0078,5.4902,-62.6172,182.2177,-1394.5249,-84.9892
26.68,-0.0754,-0.0077,5.4887,-62.6173,182.3275,-1395.7772,-84.9906
26.70,-0.0753,-0.0077,5.4872,-62.6175,182.4372,-1397.0296,-84.9919
26.72,-0.0753,-0.0076,5.4857,-62.6176,182.5469,-1398.2819,-84.9933
26.74,-0.0752,-0.0076,5.4842,-62.6178,182.6566,-1399.5343,-84.9947
26.76,-0.0752,-0.0075,5.4827,-62.6179,182.7662,-1400.7866,-84.9961
26.78,-0.0751,-0.0075,5.4812,-62.6181,182.8759,-1402.0390,-84.9974
26.80,-0.0751,-0.0074,5.4797,-62.6182,182.9855,-1403.2914,-84.9988
26.82,-0.0751,-0.0074,5.4782,-62.6184,183.0950,-1404.5437,-85.0002
26.84,-0.0750,-0.0073,5.4767,-62.6185,183.2046,-1405.7961,-85.0016
26.86,-0.0750,-0.0073,5.4752,-62.6187,183.3141,-1407.0485,-85.0029
26.88,-0.0749,-0.0073,5.4737,-62.6188,183.4235,-1408.3009,-85.0043
26.90,-0.0749,-0.0072,5.4722,-62.6190,183.5330,-1409.5532,-85.0057
26.92,-0.0749,-0.0072,5.4707,-62.6191,183.6424,-1410.8056,-85.0071
26.94,-0.0748,-0.0071,5.4692,-62.6192,183.7518,-1412.0580,-85.0084
26.96,-0.0748,-0.0071,5.4677,-62.6194,183.8611,-1413.3104,-85.0098
26.98,-0.0747,-0.0070,5.4662,-62.6195,183.9705,-1414.5628,-85.0112
27.00,-0.0747,-0.0070,5.4647,-62.6197,184.0798,-1415.8152,-85.0125
27.02,-0.0747,-0.0069,5.4632,-62.6198,184.1890,-1417.0676,-85.0139
27.04,-0.0746,-0.0069,5.4617,-62.6199,184.2983,-1418.3200,-85.0153
27.06,-0.0746,-0.0069,5.4602,-62.6201,184.4075,-1419.5724,-85.0166
27.08,-0.0745,-0.0068,5.4587,-62.6202,184.5166,-1420.8248,-85.0180
27.10,-0.0745,-0.0068,5.4572,-62.6204,184.6258,-1422.0772,-85.0194
27.12,-0.0745,-0.0067,5.4558,-62.6205,184.7349,-1423.3296,-85.0207
27.14,-0.0744,-0.0067,5.4543,-62.6206,184.8440,-1424.5820,-85.0221
27.16,-0.0744,-0.0066,5.4528,-62.6208,184.9530,-1425.8344,-85.0234
27.18,-0.0743,-0.0066,5.4513,-62.6209,185.0621,-1427.0868,-85.0248
27.20,-0.0743,-0.0066,5.4498,-62.6210,185.1711,-1428.3393,-85.0262
27.22,-0.0743,-0.0065,5.4483,-62.6211,185.2800,-1429.5917,-85.0275
27.24,-0.0742,-0.0065,5.4468,-62.6213,185.3890,-1430.8441,-85.0289
27.26,-0.0742,-0.0064,5.4454,-62.6214,185.4979,-1432.0965,-85.0302
27.28,-0.0741,-0.0064,5.4439,-62.6215,185.6067,-1433.3490,-85.0316
27.30,-0.0741,-0.0064,5.4424,-62.6217,185.7156,-1434.6014,-85.0330
27.32,-0.0740,-0.0063,5.4409,-62.6218,185.8244,-1435.8538,-85.0343
27.34,-0.0740,-0.0063,5.4394,-62.6219,185.9332,-1437.1063,-85.0357
27.36,-0.0740,-0.0062,5.4380,-62.6220,186.0420,-1438.3587,-85.0370
27.38,-0.0739,-0.0062,5.4365,-62.6222,186.1507,-1439.6112,-85.0384
27.40,-0.0739,-0.0062,5.4350,-62.6223,186.2594,-1440.8636,-85.0397
27.42,-0.0738,-0.0061,5.4335,-62.6224,186.3681,-1442.1160,-85.0411
27.44,-0.0738,-0.0061,5.4320,-62.6225,186.4767,-1443.3685,-85.0424
27.46,-0.0738,-0.0060,5.4306,-62.6227,186.5853,-1444.6209,-85.0438
27.48,-0.0737,-0.0060,5.4291,-62.6228,186.6939,-1445.8734,-85.0451
27.50,-0.0737,-0.0060,5.4276,-62.6229,186.8024,-1447.1259,-85.0465
27.52,-0.0736,-0.0059,5.4261,-62.6230,186.9110,-1448.3783,-85.0478
27.54,-0.0736,-0.0059,5.4247,-62.6231,187.0195,-1449.6308,-85.0492
27.56,-0.0736,-0.0059,5.4232,-62.6232,187.1279,-1450.8832,-85.0505
27.58,-0.0735,-0.0058,5.4217,-62.6234,187.2364,-1452.1357,-85.0519
27.60,-0.0735,-0.0058,5.4203,-62.6235,187.3448,-1453.3882,-85.0532
27.62,-0.0734,-0.0058,5.4188,-62.6236,187.4531,-1454.6407,-85.0545
27.64,-0.0734,-0.0057,5.4173,-62.6237,187.5615,-1455.8931,-85.0559
27.66,-0.0734,-0.0057,5.4159,-62.6238,187.6698,-1457.1456,-85.0572
27.68,-0.0733,-0.0056,5.4144,-62.6239,187.7781,-1458.3981,-85.0586
27.70,-0.0733,-0.0056,5.4129,-62.6240,187.8863,-1459.6506,-85.0599
27.72,-0.0732,-0.0056,5.4115,-62.6242,187.9946,-1460.9031,-85.0612
27.74,-0.0732,-0.0055,5.4100,-62.6243,188.1028,-1462.1555,-85.0626
27.76,-0.0732,-0.0055,5.4085,-62.6244,188.2109,-1463.4080,-85.0639
27.78,-0.0731,-0.0055,5.4071,-62.6245,188.3191,-1464.6605,-85.0653
27.80,-0.0731,-0.0054,5.4056,-62.6246,188.4272,-1465.9130,-85.0666
27.82,-0.0731,-0.0054,5.4041,-62.6247,188.5353,-1467.1655,-85.0679
27.84,-0.0730,-0.0054,5.4027,-62.6248,188.6433,-1468.4180,-85.0693
27.86,-0.0730,-0.0053,5.4012,-62.6249,188.7514,-1469.6705,-85.0706
27.88,-0.0729,-0.0053,5.3998,-62.6250,188.8594,-1470.9230,-85.0719
27.90,-0.0729,-0.0053,5.3983,-62.6251,188.9673,-1472.1755,-85.0733
27.92,-0.0729,-0.0052,5.3969,-62.6252,189.0753,-1473.4280,-85.0746
27.94,-0.0728,-0.0052,5.3954,-62.6253,189.1832,-1474.6805,-85.0759
27.96,-0.0728,-0.0052,5.3939,-62.6254,189.2911,-1475.9330,-85.0773
27.98,-0.0727,-0.0051,5.3925,-62.6255,189.3989,-1477.1855,-85.0786
28.00,-0.0727,-0.0051,5.3910,-62.6256,189.5067,-1478.4380,-85.0799
28.02,-0.0727,-0.0051,5.3896,-62.6257,189.6145,-1479.6906,-85.0812
28.04,-0.0726,-0.0050,5.3881,-62.6258,189.7223,-1480.9431,-85.0826
28.06,-0.0726,-0.0050,5.3867,-62.6259,189.8300,-1482.1956,-85.0839
28.08,-0.0725,-0.0050,5.3852,-62.6260,189.9377,-1483.4481,-85.0852
28.10,-0.0725,-0.0049,5.3838,-62.6261,190.0454,-1484.7006,-85.0865
28.12,-0.0725,-0.0049,5.3823,-62.6262,190.1530,-1485.9532,-85.0879
28.14,-0.0724,-0.0049,5.3809,-62.6263,190.2607,-1487.2057,-85.0892
28.16,-0.0724,-0.0049,5.3794,-62.6264,190.3682,-1488.4582,-85.0905
28.18,-0.0723,-0.0048,5.3780,-62.6265,190.4758,-1489.7107,-85.0918
28.20,-0.0723,-0.0048,5.3765,-62.6266,190.5833,-1490.9633,-85.0932
28.22,-0.0723,-0.0048,5.3751,-62.6267,190.6908,-1492.2158,-85.0945
28.24,-0.0722,-0.0047,5.3736,-62.6268,190.7983,-1493.4684,-85.0958
28.26,-0.0722,-0.0047,5.3722,-62.6269,190.9058,-1494.7209,-85.0971
28.28,-0.0722,-0.0047,5.3708,-62.6270,191.0132,-1495.9734,-85.0984
28.30,-0.0721,-0.0046,5.3693,-62.6271,191.1206,-1497.2260,-85.0997
28.32,-0.0721,-0.0046,5.3679,-62.6272,191.2279,-1498.4785,-85.1011
28.34,-0.0720,-0.0046,5.3664,-62.6273,191.3352,-1499.7311,-85.1024
28.36,-0.0720,-0.0046,5.3650,-62.6274,191.4425,-1500.9836,-85.1037
28.38,-0.0720,-0.0045,5.3636,-62.6275,191.5498,-1502.2362,-85.1050
28.40,-0.0719,-0.0045,5.3621,-62.6276,191.6571,-1503.4887,-85.1063
28.42,-0.0719,-0.0045,5.3607,-62.6276,191.7643,-1504.7413,-85.1076
28.44,-0.0718,-0.0044,5.3592,-62.6277,191.8715,-1505.9938,-85.1089
28.46,-0.0718,-0.0044,5.3578,-62.6278,191.9786,-1507.2464,-85.1103
28.48,-0.0718,-0.0044,5.3564,-62.6279,192.0857,-1508.4989,-85.1116
28.50,-0.0717,-0.0044,5.3549,-62.6280,192.1928,-1509.7515,-85.1129
28.52,-0.0717,-0.0043,5.3535,-62.6281,192.2999,-1511.0041,-85.1142
28.54,-0.0717,-0.0043,5.3521,-62.6282,192.4069,-1512.2566,-85.1155
28.56,-0.0716,-0.0043,5.3506,-62.6283,192.5140,-1513.5092,-85.1168
28.58,-0.0716,-0.0043,5.3492,-62.6283,192.6209,-1514.7617,-85.1181
28.60,-0.0715,-0.0042,5.3478,-62.6284,192.7279,-1516.0143,-85.1194
28.62,-0.0715,-0.0042,5.3463,-62.6285,192.8348,-1517.2669,-85.1207
28.64,-0.0715,-0.0042,5.3449,-62.6286,192.9417,-1518.5195,-85.1220
28.66,-0.0714,-0.0041,5.3435,-62.6287,193.0486,-1519.7720,-85.1233
28.68,-0.0714,-0.0041,5.3421,-62.6288,193.1554,-1521.0246,-85.1246
28.70,-0.0713,-0.0041,5.3406,-62.6288,193.2622,-1522.2772,-85.1259
28.72,-0.0713,-0.0041,5.3392,-62.6289,193.3690,-1523.5298,-85.1272
28.74,-0.0713,-0.0040,5.3378,-62.6290,193.4758,-1524.7823,-85.1285
28.76,-0.0712,-0.0040,5.3364,-62.6291,193.5825,-1526.0349,-85.1298
28.78,-0.0712,-0.0040,5.3349,-62.6292,193.6892,-1527.2875,-85.1311
28.80,-0.0712,-0.0040,5.3335,-62.6292,193.7959,-1528.5401,-85.1324
28.82,-0.0711,-0.0039,5.3321,-62.6293,193.9025,-1529.7927,-85.1337
28.84,-0.0711,-0.0039,5.3307,-62.6294,194.0091,-1531.0453,-85.1350
28.86,-0.0710,-0.0039,5.3292,-62.6295,194.1157,-1532.2979,-85.1363
28.88,-0.0710,-0.0039,5.3278,-62.6296,194.2223,-1533.5504,-85.1376
28.90,-0.0710,-0.0038,5.3264,-62.6296,194.3288,-1534.8030,-85.1389
28.92,-0.0709,-0.0038,5.3250,-62.6297,194.4353,-1536.0556,-85.1402
28.94,-0.0709,-0.0038,5.3236,-62.6298,194.5418,-1537.3082,-85.1415
28.96,-0.0709,-0.0038,5.3222,-62.6299,194.6482,-1538.5608,-85.1428
28.98,-0.0708,-0.0038,5.3207,-62.6299,194.7546,-1539.8134,-85.1441
29.00,-0.0708,-0.0037,5.3193,-62.6300,194.8610,-1541.0660,-85.1454
29.02,-0.0707,-0.0037,5.3179,-62.6301,194.9674,-1542.3186,-85.1467
29.04,-0.0707,-0.0037,5.3165,-62.6302,195.0737,-1543.5712,-85.1480
29.06,-0.0707,-0.0037,5.3151,-62.6302,195.1800,-1544.8238,-85.1492
29.08,-0.0706,-0.0036,5.3137,-62.6303,195.2863,-1546.0764,-85.1505
29.10,-0.0706,-0.0036,5.3123,-62.6304,195.3925,-1547.3290,-85.1518
29.12,-0.0706,-0.0036,5.3108,-62.6304,195.4987,-1548.5817,-85.1531
29.14,-0.0705,-0.0036,5.3094,-62.6305,195.6049,-1549.8343,-85.1544
29.16,-0.0705,-0.0035,5.3080,-62.6306,195.7111,-1551.0869,-85.1557
29.18,-0.0704,-0.0035,5.3066,-62.6307,195.8172,-1552.3395,-85.1570
29.20,-0.0704,-0.0035,5.3052,-62.6307,195.9233,-1553.5921,-85.1583
29.22,-0.0704,-0.0035,5.3038,-62.6308,196.0294,-1554.8447,-85.1595
29.24,-0.0703,-0.0035,5.3024,-62.6309,196.1355,-1556.0973,-85.1608
29.26,-0.0703,-0.0034,5.3010,-62.6309,196.2415,-1557.3500,-85.1621
29.28,-0.0703,-0.0034,5.2996,-62.6310,196.3475,-1558.6026,-85.1634
29.30,-0.0702,-0.0034,5.2982,-62.6311,196.4534,-1559.8552,-85.1647
29.32,-0.0702,-0.0034,5.2968,-62.6311,196.5594,-1561.1078,-85.1659
29.34,-0.0701,-0.0034,5.2954,-62.6312,196.6653,-1562.3604,-85.1672
29.36,-0.0701,-0.0033,5.2940,-62.6313,196.7712,-1563.6131,-85.1685
29.38,-0.0701,-0.0033,5.2926,-62.6313,196.8770,-1564.8657,-85.1698
29.40,-0.0700,-0.0033,5.2912,-62.6314,196.9828,-1566.1183,-85.1711
29.42,-0.0700,-0.0033,5.2898,-62.6315,197.0886,-1567.3710,-85.1723
29.44,-0.0700,-0.0032,5.2884,-62.6315,197.1944,-1568.6236,-85.1736
29.46,-0.0699,-0.0032,5.2870,-62.6316,197.3001,-1569.8762,-85.1749
29.48,-0.0699,-0.0032,5.2856,-62.6317,197.4058,-1571.1289,-85.1762
29.50,-0.0698,-0.0032,5.2842,-62.6317,197.5115,-1572.3815,-85.1774
29.52,-0.0698,-0.0032,5.2828,-62.6318,197.6172,-1573.6341,-85.1787
29.54,-0.0698,-0.0031,5.2814,-62.6319,197.7228,-1574.8868,-85.1800
29.56,-0.0697,-0.0031,5.2800,-62.6319,197.8284,-1576.1394,-85.1812
29.58,-0.0697,-0.0031,5.2786,-62.6320,197.9340,-1577.3920,-85.1825
29.60,-0.0697,-0.0031,5.2772,-62.6320,198.0395,-1578.6447,-85.1838
29.62,-0.0696,-0.0031,5.2758,-62.6321,198.1450,-1579.8973,-85.1851
29.64,-0.0696,-0.0030,5.2744,-62.6322,198.2505,-1581.1500,-85.1863
29.66,-0.0695,-0.0030,5.2730,-62.6322,198.3560,-1582.4026,-85.1876
29.68,-0.0695,-0.0030,5.2716,-62.6323,198.4614,-1583.6553,-85.1889
29.70,-0.0695,-0.0030,5.2703,-62.6323,198.5668,-1584.9079,-85.1901
29.72,-0.0694,-0.0030,5.2689,-62.6324,198.6722,-1586.1606,-85.1914
29.74,-0.0694,-0.0030,5.2675,-62.6325,198.7776,-1587.4132,-85.1927
29.76,-0.0694,-0.0029,5.2661,-62.6325,198.8829,-1588.6659,-85.1939
29.78,-0.0693,-0.0029,5.2647,-62.6326,198.9882,-1589.9185,-85.1952
29.80,-0.0693,-0.0029,5.2633,-62.6326,199.0934,-1591.1712,-85.1965
29.82,-0.0693,-0.0029,5.2619,-62.6327,199.1987,-1592.4238,-85.1977
29.84,-0.0692,-0.0029,5.2605,-62.6328,199.3039,-1593.6765,-85.1990
29.86,-0.0692,-0.0028,5.2592,-62.6328,199.4091,-1594.9291,-85.2002
29.88,-0.0691,-0.0028,5.2578,-62.6329,199.5142,-1596.1818,-85.2015
29.90,-0.0691,-0.0028,5.2564,-62.6329,199.6194,-1597.4344,-85.2028
29.92,-0.0691,-0.0028,5.2550,-62.6330,199.7245,-1598.6871,-85.2040
29.94,-0.0690,-0.0028,5.2536,-62.6330,199.8295,-1599.9398,-85.2053
29.96,-0.0690,-0.0028,5.2523,-62.6331,199.9346,-1601.1924,-85.2065
29.98,-0.0690,-0.0027,5.2509,-62.6331,200.0396,-1602.4451,-85.2078
30.00,-0.0689,-0.0027,5.2495,-62.6332,200.1446,-1603.6977,-85.2090
30.02,-0.0689,-0.0027,5.2481,-62.6333,200.2495,-1604.9504,-85.2103
30.04,-0.0689,-0.0027,5.2467,-62.6333,200.3545,-1606.2031,-85.2116
30.06,-0.0688,-0.0027,5.2454,-62.6334,200.4594,-1607.4557,-85.2128
30.08,-0.0688,-0.0027,5.2440,-62.6334,200.5643,-1608.7084,-85.2141
30.10,-0.0687,-0.0026,5.2426,-62.6335,200.6691,-1609.9611,-85.2153
30.12,-0.0687,-0.0026,5.2412,-62.6335,200.7739,-1611.2138,-85.2166
30.14,-0.0687,-0.0026,5.2399,-62.6336,200.8787,-1612.4664,-85.2178
30.16,-0.0686,-0.0026,5.2385,-62.6336,200.9835,-1613.7191,-85.2191
30.18,-0.0686,-0.0026,5.2371,-62.6337,201.0883,-1614.9718,-85.2203
30.20,-0.0686,-0.0026,5.2357,-62.6337,201.1930,-1616.2244,-85.2216
30.22,-0.0685,-0.0025,5.2344,-62.6338,201.2977,-1617.4771,-85.2228
30.24,-0.0685,-0.0025,5.2330,-62.6338,201.4023,-1618.7298,-85.2241
30.26,-0.0685,-0.0025,5.2316,-62.6339,201.5069,-1619.9825,-85.2253
30.28,-0.0684,-0.0025,5.2303,-62.6339,201.6116,-1621.2352,-85.2266
30.30,-0.0684,-0.0025,5.2289,-62.6340,201.7161,-1622.4878,-85.2278
30.32,-0.0684,-0.0025,5.2275,-62.6340,201.8207,-1623.7405,-85.2291
30.34,-0.0683,-0.0024,5.2262,-62.6341,201.9252,-1624.9932,-85.2303
30.36,-0.0683,-0.0024,5.2248,-62.6341,202.0297,-1626.2459,-85.2315
30.38,-0.0682,-0.0024,5.2234,-62.6342,202.1342,-1627.4986,-85.2328
30.40,-0.0682,-0.0024,5.2221,-62.6342,202.2386,-1628.7512,-85.2340
30.42,-0.0682,-0.0024,5.2207,-62.6343,202.3430,-1630.0039,-85.2353
30.44,-0.0681,-0.0024,5.2193,-62.6343,202.4474,-1631.2566,-85.2365
30.46,-0.0681,-0.0024,5.2180,-62.6344,202.5518,-1632.5093,-85.2378
30.48,-0.0681,-0.0023,5.2166,-62.6344,202.6561,-1633.7620,-85.2390
30.50,-0.0680,-0.0023,5.2153,-62.6345,202.7604,-1635.0147,-85.2402
30.52,-0.0680,-0.0023,5.2139,-62.6345,202.8647,-1636.2674,-85.2415
30.54,-0.0680,-0.0023,5.2125,-62.6345,202.9689,-1637.5201,-85.2427
30.56,-0.0679,-0.0023,5.2112,-62.6346,203.0732,-1638.7728,-85.2440
30.58,-0.0679,-0.0023,5.2098,-62.6346,203.1774,-1640.0254,-85.2452
30.60,-0.0679,-0.0023,5.2085,-62.6347,203.2815,-1641.2781,-85.2464
30.62,-0.0678,-0.0022,5.2071,-62.6347,203.3857,-1642.5308,-85.2477
30.64,-0.0678,-0.0022,5.2058,-62.6348,203.4898,-1643.7835,-85.2489
30.66,-0.0677,-0.0022,5.2044,-62.6348,203.5939,-1645.0362,-85.2501
30.68,-0.0677,-0.0022,5.2031,-62.6349,203.6979,-1646.2889,-85.2514
30.70,-0.0677,-0.0022,5.2017,-62.6349,203.8020,-1647.5416,-85.2526
30.72,-0.0676,-0.0022,5.2003,-62.6349,203.9060,-1648.7943,-85.2538
30.74,-0.0676,-0.0022,5.1990,-62.6350,204.0100,-1650.0470,-85.2551
30.76,-0.0676,-0.0021,5.1976,-62.6350,204.1139,-1651.2997,-85.2563
30.78,-0.0675,-0.0021,5.1963,-62.6351,204.2178,-1652.5524,-85.2575
30.80,-0.0675,-0.0021,5.1949,-62.6351,204.3217,-1653.8051,-85.2588
30.82,-0.0675,-0.0021,5.1936,-62.6352,204.4256,-1655.0578,-85.2600
30.84,-0.0674,-0.0021,5.1922,-62.6352,204.5295,-1656.3105,-85.2612
30.86,-0.0674,-0.0021,5.1909,-62.6352,204.6333,-1657.5632,-85.2624
30.88,-0.0674,-0.0021,5.1895,-62.6353,204.7371,-1658.8159,-85.2637
30.90,-0.0673,-0.0021,5.1882,-62.6353,204.8408,-1660.0687,-85.2649
30.92,-0.0673,-0.0020,5.1869,-62.6354,204.9446,-1661.3214,-85.2661
30.94,-0.0673,-0.0020,5.1855,-62.6354,205.0483,-1662.5741,-85.2673
30.96,-0.0672,-0.0020,5.1842,-62.6354,205.1520,-1663.8268,-85.2686
30.98,-0.0672,-0.0020,5.1828,-62.6355,205.2556,-1665.0795,-85.2698
31.00,-0.0672,-0.0020,5.1815,-62.6355,205.3592,-1666.3322,-85.2710
31.02,-0.0671,-0.0020,5.1801,-62.6356,205.4628,-1667.5849,-85.2722
31.04,-0.0671,-0.0020,5.1788,-62.6356,205.5664,-1668.8376,-85.2735
31.06,-0.0670,-0.0020,5.1775,-62.6356,205.6700,-1670.0903,-85.2747
31.08,-0.0670,-0.0019,5.1761,-62.6357,205.7735,-1671.3430,-85.2759
31.10,-0.0670,-0.0019,5.1748,-62.6357,205.8770,-1672.5958,-85.2771
31.12,-0.0669,-0.0019,5.1734,-62.6358,205.9805,-1673.8485,-85.2783
31.14,-0.0669,-0.0019,5.1721,-62.6358,206.0839,-1675.1012,-85.2796
31.16,-0.0669,-0.0019,5.1708,-62.6358,206.1873,-1676.3539,-85.2808
31.18,-0.0668,-0.0019,5.1694,-62.6359,206.2907,-1677.6066,-85.2820
31.20,-0.0668,-0.0019,5.1681,-62.6359,206.3941,-1678.8593,-85.2832
31.22,-0.0668,-0.0019,5.1667,-62.6360,206.4974,-1680.1121,-85.2844
31.24,-0.0667,-0.0018,5.1654,-62.6360,206.6007,-1681.3648,-85.2856
31.26,-0.0667,-0.0018,5.1641,-62.6360,206.7040,-1682.6175,-85.2869
31.28,-0.0667,-0.0018,5.1627,-62.6361,206.8072,-1683.8702,-85.2881
31.30,-0.0666,-0.0018,5.1614,-62.6361,206.9105,-1685.1229,-85.2893
31.32,-0.0666,-0.0018,5.1601,-62.6361,207.0137,-1686.3757,-85.2905
31.34,-0.0666,-0.0018,5.1588,-62.6362,207.1168,-1687.6284,-85.2917
31.36,-0.0665,-0.0018,5.1574,-62.6362,207.2200,-1688.8811,-85.2929
31.38,-0.0665,-0.0018,5.1561,-62.6362,207.3231,-1690.1338,-85.2941
31.40,-0.0665,-0.0018,5.1548,-62.6363,207.4262,-1691.3866,-85.2953
31.42,-0.0664,-0.0017,5.1534,-62.6363,207.5293,-1692.6393,-85.2966
31.44,-0.0664,-0.0017,5.1521,-62.6363,207.6323,-1693.8920,-85.2978
31.46,-0.0664,-0.0017,5.1508,-62.6364,207.7353,-1695.1447,-85.2990
31.48,-0.0663,-0.0017,5.1495,-62.6364,207.8383,-1696.3975,-85.3002
31.50,-0.0663,-0.0017,5.1481,-62.6364,207.9413,-1697.6502,-85.3014
31.52,-0.0663,-0.0017,5.1468,-62.6365,208.0442,-1698.9029,-85.3026
31.54,-0.0662,-0.0017,5.1455,-62.6365,208.1471,-1700.1557,-85.3038
31.56,-0.0662,-0.0017,5.1442,-62.6365,208.2500,-1701.4084,-85.3050
31.58,-0.0662,-0.0017,5.1428,-62.6366,208.3529,-1702.6611,-85.3062
31.60,-0.0661,-0.0016,5.1415,-62.6366,208.4557,-1703.9139,-85.3074
31.62,-0.0661,-0.0016,5.1402,-62.6366,208.5585,-1705.1666,-85.3086
31.64,-0.0661,-0.0016,5.1389,-62.6367,208.6613,-1706.4193,-85.3098
31.66,-0.0660,-0.0016,5.1375,-62.6367,208.7640,-1707.6721,-85.3110
31.68,-0.0660,-0.0016,5.1362,-62.6367,208.8668,-1708.9248,-85.3122
31.70,-0.0660,-0.0016,5.1349,-62.6368,208.9695,-1710.1775,-85.3134
31.72,-0.0659,-0.0016,5.1336,-62.6368,209.0721,-1711.4303,-85.3146
31.74,-0.0659,-0.0016,5.1323,-62.6368,209.1748,-1712.6830,-85.3158
31.76,-0.0659,-0.0016,5.1310,-62.6369,209.2774,-1713.9357,-85.3170
31.78,-0.0658,-0.0016,5.1296,-62.6369,209.3800,-1715.1885,-85.3182
31.80,-0.0658,-0.0015,5.1283,-62.6369,209.4826,-1716.4412,-85.3194
31.82,-0.0657,-0.0015,5.1270,-62.6370,209.5851,-1717.6940,-85.3206
31.84,-0.0657,-0.0015,5.1257,-62.6370,209.6876,-1718.9467,-85.3218
31.86,-0.0657,-0.0015,5.1244,-62.6370,209.7901,-1720.1994,-85.3230
31.88,-0.0656,-0.0015,5.1231,-62.6371,209.8926,-1721.4522,-85.3242
31.90,-0.0656,-0.0015,5.1218,-62.6371,209.9950,-1722.7049,-85.3254
31.92,-0.0656,-0.0015,5.1204,-62.6371,210.0974,-1723.9577,-85.3266
31.94,-0.0655,-0.0015,5.1191,-62.6371,210.1998,-1725.2104,-85.3278
31.96,-0.0655,-0.0015,5.1178,-62.6372,210.3021,-1726.4631,-85.3290
31.98,-0.0655,-0.0015,5.1165,-62.6372,210.4045,-1727.7159,-85.3302
32.00,-0.0654,-0.0015,5.1152,-62.6372,210.5068,-1728.9686,-85.3314
32.02,-0.0654,-0.0014,5.1139,-62.6373,210.6091,-1730.2214,-85.3326
32.04,-0.0654,-0.0014,5.1126,-62.6373,210.7113,-1731.4741,-85.3337
32.06,-0.0653,-0.0014,5.1113,-62.6373,210.8135,-1732.7269,-85.3349
32.08,-0.0653,-0.0014,5.1100,-62.6373,210.9157,-1733.9796,-85.3361
32.10,-0.0653,-0.0014,5.1087,-62.6374,211.0179,-1735.2324,-85.3373
32.12,-0.0652,-0.0014,5.1074,-62.6374,211.1200,-1736.4851,-85.3385
32.14,-0.0652,-0.0014,5.1061,-62.6374,211.2222,-1737.7379,-85.3397
32.16,-0.0652,-0.0014,5.1048,-62.6375,211.3243,-1738.9906,-85.3409
32.18,-0.0651,-0.0014,5.1034,-62.6375,211.4263,-1740.2434,-85.3421
32.20,-0.0651,-0.0014,5.1021,-62.6375,211.5284,-1741.4961,-85.3432
32.22,-0.0651,-0.0014,5.1008,-62.6375,211.6304,-1742.7489,-85.3444
32.24,-0.0650,-0.0013,5.0995,-62.6376,211.7324,-1744.0016,-85.3456
32.26,-0.0650,-0.0013,5.0982,-62.6376,211.8343,-1745.2544,-85.3468
32.28,-0.0650,-0.0013,5.0969,-62.6376,211.9363,-1746.5071,-85.3480
32.30,-0.0649,-0.0013,5.0956,-62.6376,212.0382,-1747.7599,-85.3492
32.32,-0.0649,-0.0013,5.0943,-62.6377,212.1401,-1749.0126,-85.3503
32.34,-0.0649,-0.0013,5.0931,-62.6377,212.2419,-1750.2654,-85.3515
32.36,-0.0648,-0.0013,5.0918,-62.6377,212.3438,-1751.5181,-85.3527
32.38,-0.0648,-0.0013,5.0905,-62.6377,212.4456,-1752.7709,-85.3539
32.40,-0.0648,-0.0013,5.0892,-62.6378,212.5474,-1754.0236,-85.3551
32.42,-0.0647,-0.0013,5.0879,-62.6378,212.6491,-1755.2764,-85.3562
32.44,-0.0647,-0.0013,5.0866,-62.6378,212.7509,-1756.5292,-85.3574
32.46,-0.0647,-0.0013,5.0853,-62.6379,212.8526,-1757.7819,-85.3586
32.48,-0.0647,-0.0012,5.0840,-62.6379,212.9543,-1759.0347,-85.3598
32.50,-0.0646,-0.0012,5.0827,-62.6379,213.0559,-1760.2874,-85.3610
32.52,-0.0646,-0.0012,5.0814,-62.6379,213.1575,-1761.5402,-85.3621
32.54,-0.0646,-0.0012,5.0801,-62.6379,213.2591,-1762.7929,-85.3633
32.56,-0.0645,-0.0012,5.0788,-62.6380,213.3607,-1764.0457,-85.3645
32.58,-0.0645,-0.0012,5.0775,-62.6380,213.4623,-1765.2985,-85.3657
32.60,-0.0645,-0.0012,5.0762,-62.6380,213.5638,-1766.5512,-85.3668
32.62,-0.0644,-0.0012,5.0750,-62.6380,213.6653,-1767.8040,-85.3680
32.64,-0.0644,-0.0012,5.0737,-62.6381,213.7668,-1769.0567,-85.3692
32.66,-0.0644,-0.0012,5.0724,-62.6381,213.8682,-1770.3095,-85.3703
32.68,-0.0643,-0.0012,5.0711,-62.6381,213.9696,-1771.5623,-85.3715
32.70,-0.0643,-0.0012,5.0698,-62.6381,214.0710,-1772.8150,-85.3727
32.72,-0.0643,-0.0012,5.0685,-62.6382,214.1724,-1774.0678,-85.3739
32.74,-0.0642,-0.0012,5.0672,-62.6382,214.2737,-1775.3206,-85.3750
32.76,-0.0642,-0.0011,5.0660,-62.6382,214.3751,-1776.5733,-85.3762
32.78,-0.0642,-0.0011,5.0647,-62.6382,214.4764,-1777.8261,-85.3774
32.80,-0.0641,-0.0011,5.0634,-62.6383,214.5776,-1779.0789,-85.3785
32.82,-0.0641,-0.0011,5.0621,-62.6383,214.6789,-1780.3316,-85.3797
32.84,-0.0641,-0.0011,5.0608,-62.6383,214.7801,-1781.5844,-85.3809
32.86,-0.0640,-0.0011,5.0595,-62.6383,214.8813,-1782.8372,-85.3820
32.88,-0.0640,-0.0011,5.0583,-62.6383,214.9824,-1784.0899,-85.3832
32.90,-0.0640,-0.0011,5.0570,-62.6384,215.0836,-1785.3427,-85.3844
32.92,-0.0639,-0.0011,5.0557,-62.6384,215.1847,-1786.5955,-85.3855
32.94,-0.0639,-0.0011,5.0544,-62.6384,215.2858,-1787.8482,-85.3867
32.96,-0.0639,-0.0011,5.0531,-62.6384,215.3868,-1789.1010,-85.3878
32.98,-0.0638,-0.0011,5.0519,-62.6385,215.4879,-1790.3538,-85.3890
33.00,-0.0638,-0.0011,5.0506,-62.6385,215.5889,-1791.6065,-85.3902
33.02,-0.0638,-0.0011,5.0493,-62.6385,215.6899,-1792.8593,-85.3913
33.04,-0.0637,-0.0010,5.0480,-62.6385,215.7908,-1794.1121,-85.3925
33.06,-0.0637,-0.0010,5.0468,-62.6385,215.8918,-1795.3648,-85.3936
33.08,-0.0637,-0.0010,5.0455,-62.6386,215.9927,-1796.6176,-85.3948
33.10,-0.0636,-0.0010,5.0442,-62.6386,216.0936,-1797.8704,-85.3960
33.12,-0.0636,-0.0010,5.0430,-62.6386,216.1944,-1799.1232,-85.3971
33.14,-0.0636,-0.0010,5.0417,-62.6386,216.2953,-1800.3759,-85.3983
33.16,-0.0635,-0.0010,5.0404,-62.6386,216.3961,-1801.6287,-85.3994
33.18,-0.0635,-0.0010,5.0391,-62.6387,216.4969,-1802.8815,-85.4006
33.20,-0.0635,-0.0010,5.0379,-62.6387,216.5976,-1804.1342,-85.4017
33.22,-0.0635,-0.0010,5.0366,-62.6387,216.6983,-1805.3870,-85.4029
33.24,-0.0634,-0.0010,5.0353,-62.6387,216.7990,-1806.6398,-85.4041
33.26,-0.0634,-0.0010,5.0341,-62.6387,216.8997,-1807.8926,-85.4052
33.28,-0.0634,-0.0010,5.0328,-62.6388,217.0004,-1809.1453,-85.4064
33.30,-0.0633,-0.0010,5.0315,-62.6388,217.1010,-1810.3981,-85.4075
33.32,-0.0633,-0.0010,5.0303,-62.6388,217.2016,-1811.6509,-85.4087
33.34,-0.0633,-0.0010,5.0290,-62.6388,217.3022,-1812.9037,-85.4098
33.36,-0.0632,-0.0009,5.0277,-62.6388,217.4028,-1814.1565,-85.4110
33.38,-0.0632,-0.0009,5.0265,-62.6389,217.5033,-1815.4092,-85.4121
33.40,-0.0632,-0.0009,5.0252,-62.6389,217.6038,-1816.6620,-85.4133
33.42,-0.0631,-0.0009,5.0239,-62.6389,217.7043,-1817.9148,-85.4144
33.44,-0.0631,-0.0009,5.0227,-62.6389,217.8047,-1819.1676,-85.4156
33.46,-0.0631,-0.0009,5.0214,-62.6389,217.9051,-1820.4203,-85.4167
33.48,-0.0630,-0.0009,5.0202,-62.6389,218.0056,-1821.6731,-85.4179
33.50,-0.0630,-0.0009,5.0189,-62.6390,218.1059,-1822.9259,-85.4190
33.52,-0.0630,-0.0009,5.0176,-62.6390,218.2063,-1824.1787,-85.4201
33.54,-0.0629,-0.0009,5.0164,-62.6390,218.3066,-1825.4315,-85.4213
33.56,-0.0629,-0.0009,5.0151,-62.6390,218.4069,-1826.6842,-85.4224
33.58,-0.0629,-0.0009,5.0139,-62.6390,218.5072,-1827.9370,-85.4236
33.60,-0.0628,-0.0009,5.0126,-62.6391,218.6074,-1829.1898,-85.4247
33.62,-0.0628,-0.0009,5.0114,-62.6391,218.7077,-1830.4426,-85.4259
33.64,-0.0628,-0.0009,5.0101,-62.6391,218.8079,-1831.6954,-85.4270
33.66,-0.0628,-0.0009,5.0088,-62.6391,218.9080,-1832.9481,-85.4282
33.68,-0.0627,-0.0009,5.0076,-62.6391,219.0082,-1834.2009,-85.4293
33.70,-0.0627,-0.0009,5.0063,-62.6391,219.1083,-1835.4537,-85.4304
33.72,-0.0627,-0.0008,5.0051,-62.6392,219.2084,-1836.7065,-85.4316
33.74,-0.0626,-0.0008,5.0038,-62.6392,219.3085,-1837.9593,-85.4327
33.76,-0.0626,-0.0008,5.0026,-62.6392,219.4086,-1839.2121,-85.4339
33.78,-0.0626,-0.0008,5.0013,-62.6392,219.5086,-1840.4648,-85.4350
33.80,-0.0625,-0.0008,5.0001,-62.6392,219.6086,-1841.7176,-85.4361
33.82,-0.0625,-0.0008,4.9988,-62.6392,219.7086,-1842.9704,-85.4373
33.84,-0.0625,-0.0008,4.9976,-62.6393,219.8085,-1844.2232,-85.4384
33.86,-0.0624,-0.0008,4.9963,-62.6393,219.9084,-1845.4760,-85.4395
33.88,-0.0624,-0.0008,4.9951,-62.6393,220.0083,-1846.7288,-85.4407
33.90,-0.0624,-0.0008,4.9938,-62.6393,220.1082,-1847.9816,-85.4418
33.92,-0.0623,-0.0008,4.9926,-62.6393,220.2081,-1849.2343,-85.4429
33.94,-0.0623,-0.0008,4.9913,-62.6393,220.3079,-1850.4871,-85.4441
33.96,-0.0623,-0.0008,4.9901,-62.6393,220.4077,-1851.7399,-85.4452
33.98,-0.0623,-0.0008,4.9888,-62.6394,220.5075,-1852.9927,-85.4463
34.00,-0.0622,-0.0008,4.9876,-62.6394,220.6072,-1854.2455,-85.4475
34.02,-0.0622,-0.0008,4.9864,-62.6394,220.7070,-1855.4983,-85.4486
34.04,-0.0622,-0.0008,4.9851,-62.6394,220.8067,-1856.7511,-85.4497
34.06,-0.0621,-0.0008,4.9839,-62.6394,220.9063,-1858.0039,-85.4509
34.08,-0.0621,-0.0008,4.9826,-62.6394,221.0060,-1859.2566,-85.4520
34.10,-0.0621,-0.0008,4.9814,-62.6395,221.1056,-1860.5094,-85.4531
34.12,-0.0620,-0.0007,4.9802,-62.6395,221.2052,-1861.7622,-85.4543
34.14,-0.0620,-0.0007,4.9789,-62.6395,221.3048,-1863.0150,-85.4554
34.16,-0.0620,-0.0007,4.9777,-62.6395,221.4044,-1864.2678,-85.4565
34.18,-0.0619,-0.0007,4.9764,-62.6395,221.5039,-1865.5206,-85.4576
34.20,-0.0619,-0.0007,4.9752,-62.6395,221.6034,-1866.7734,-85.4588
34.22,-0.0619,-0.0007,4.9740,-62.6395,221.7029,-1868.0262,-85.4599
34.24,-0.0619,-0.0007,4.9727,-62.6396,221.8023,-1869.2790,-85.4610
34.26,-0.0618,-0.0007,4.9715,-62.6396,221.9017,-1870.5318,-85.4621
34.28,-0.0618,-0.0007,4.9702,-62.6396,222.0012,-1871.7846,-85.4633
34.30,-0.0618,-0.0007,4.9690,-62.6396,222.1005,-1873.0373,-85.4644
34.32,-0.0617,-0.0007,4.9678,-62.6396,222.1999,-1874.2901,-85.4655
34.34,-0.0617,-0.0007,4.9665,-62.6396,222.2992,-1875.5429,-85.4666
34.36,-0.0617,-0.0007,4.9653,-62.6396,222.3985,-1876.7957,-85.4678
34.38,-0.0616,-0.0007,4.9641,-62.6397,222.4978,-1878.0485,-85.4689
34.40,-0.0616,-0.0007,4.9628,-62.6397,222.5971,-1879.3013,-85.4700
34.42,-0.0616,-0.0007,4.9616,-62.6397,222.6963,-1880.5541,-85.4711
34.44,-0.0615,-0.0007,4.9604,-62.6397,222.7955,-1881.8069,-85.4722
34.46,-0.0615,-0.0007,4.9592,-62.6397,222.8947,-1883.0597,-85.4734
34.48,-0.0615,-0.0007,4.9579,-62.6397,222.9938,-1884.3125,-85.4745
34.50,-0.0615,-0.0007,4.9567,-62.6397,223.0930,-1885.5653,-85.4756
34.52,-0.0614,-0.0007,4.9555,-62.6398,223.1921,-1886.8181,-85.4767
34.54,-0.0614,-0.0007,4.9542,-62.6398,223.2912,-1888.0709,-85.4778
34.56,-0.0614,-0.0006,4.9530,-62.6398,223.3902,-1889.3237,-85.4790
34.58,-0.0613,-0.0006,4.9518,-62.6398,223.4893,-1890.5765,-85.4801
34.60,-0.0613,-0.0006,4.9506,-62.6398,223.5883,-1891.8293,-85.4812
34.62,-0.0613,-0.0006,4.9493,-62.6398,223.6873,-1893.0821,-85.4823
34.64,-0.0612,-0.0006,4.9481,-62.6398,223.7862,-1894.3348,-85.4834
34.66,-0.0612,-0.0006,4.9469,-62.6398,223.8852,-1895.5876,-85.4845
34.68,-0.0612,-0.0006,4.9457,-62.6399,223.9841,-1896.8404,-85.4856
34.70,-0.0611,-0.0006,4.9444,-62.6399,224.0830,-1898.0932,-85.4868
34.72,-0.0611,-0.0006,4.9432,-62.6399,224.1818,-1899.3460,-85.4879
34.74,-0.0611,-0.0006,4.9420,-62.6399,224.2807,-1900.5988,-85.4890
34.76,-0.0611,-0.0006,4.9408,-62.6399,224.3795,-1901.8516,-85.4901
34.78,-0.0610,-0.0006,4.9396,-62.6399,224.4783,-1903.1044,-85.4912
34.80,-0.0610,-0.0006,4.9383,-62.6399,224.5770,-1904.3572,-85.4923
34.82,-0.0610,-0.0006,4.9371,-62.6399,224.6758,-1905.6100,-85.4934
34.84,-0.0609,-0.0006,4.9359,-62.6400,224.7745,-1906.8628,-85.4945
34.86,-0.0609,-0.0006,4.9347,-62.6400,224.8732,-1908.1156,-85.4956
34.88,-0.0609,-0.0006,4.9335,-62.6400,224.9719,-1909.3684,-85.4967
34.90,-0.0608,-0.0006,4.9322,-62.6400,225.0705,-1910.6212,-85.4978
34.92,-0.0608,-0.0006,4.9310,-62.6400,225.1691,-1911.8740,-85.4990
34.94,-0.0608,-0.0006,4.9298,-62.6400,225.2677,-1913.1268,-85.5001
34.96,-0.0608,-0.0006,4.9286,-62.6400,225.3663,-1914.3796,-85.5012
34.98,-0.0607,-0.0006,4.9274,-62.6400,225.4648,-1915.6324,-85.5023
35.00,-0.0607,-0.0006,4.9262,-62.6400,225.5634,-1916.8852,-85.5034
35.02,-0.0607,-0.0006,4.9250,-62.6401,225.6619,-1918.1380,-85.5045
35.04,-0.0606,-0.0006,4.9237,-62.6401,225.7603,-1919.3908,-85.5056
35.06,-0.0606,-0.0006,4.9225,-62.6401,225.8588,-1920.6436,-85.5067
35.08,-0.0606,-0.0006,4.9213,-62.6401,225.9572,-1921.8964,-85.5078
35.10,-0.0605,-0.0005,4.9201,-62.6401,226.0556,-1923.1492,-85.5089
35.12,-0.0605,-0.0005,4.9189,-62.6401,226.1540,-1924.4020,-85.5100
35.14,-0.0605,-0.0005,4.9177,-62.6401,226.2524,-1925.6548,-85.5111
35.16,-0.0605,-0.0005,4.9165,-62.6401,226.3507,-1926.9076,-85.5122
35.18,-0.0604,-0.0005,4.9153,-62.6401,226.4490,-1928.1604,-85.5133
35.20,-0.0604,-0.0005,4.9141,-62.6402,226.5473,-1929.4132,-85.5144
35.22,-0.0604,-0.0005,4.9129,-62.6402,226.6455,-1930.6661,-85.5155
35.24,-0.0603,-0.0005,4.9116,-62.6402,226.7438,-1931.9189,-85.5166
35.26,-0.0603,-0.0005,4.9104,-62.6402,226.8420,-1933.1717,-85.5177
35.28,-0.0603,-0.0005,4.9092,-62.6402,226.9402,-1934.4245,-85.5188
35.30,-0.0603,-0.0005,4.9080,-62.6402,227.0383,-1935.6773,-85.5199
35.32,-0.0602,-0.0005,4.9068,-62.6402,227.1365,-1936.9301,-85.5210
35.34,-0.0602,-0.0005,4.9056,-62.6402,227.2346,-1938.1829,-85.5221
35.36,-0.0602,-0.0005,4.9044,-62.6402,227.3327,-1939.4357,-85.5232
35.38,-0.0601,-0.0005,4.9032,-62.6402,227.4307,-1940.6885,-85.5243
35.40,-0.0601,-0.0005,4.9020,-62.6403,227.5288,-1941.9413,-85.5253
35.42,-0.0601,-0.0005,4.9008,-62.6403,227.6268,-1943.1941,-85.5264
35.44,-0.0600,-0.0005,4.8996,-62.6403,227.7248,-1944.4469,-85.5275
35.46,-0.0600,-0.0005,4.8984,-62.6403,227.8227,-1945.6997,-85.5286
35.48,-0.0600,-0.0005,4.8972,-62.6403,227.9207,-1946.9525,-85.5297
35.50,-0.0600,-0.0005,4.8960,-62.6403,228.0186,-1948.2053,-85.5308
35.52,-0.0599,-0.0005,4.8948,-62.6403,228.1165,-1949.4581,-85.5319
35.54,-0.0599,-0.0005,4.8936,-62.6403,228.2144,-1950.7109,-85.5330
35.56,-0.0599,-0.0005,4.8924,-62.6403,228.3122,-1951.9637,-85.5341
35.58,-0.0598,-0.0005,4.8912,-62.6403,228.4100,-1953.2165,-85.5352
35.60,-0.0598,-0.0005,4.8900,-62.6404,228.5078,-1954.4694,-85.5363
35.62,-0.0598,-0.0005,4.8888,-62.6404,228.6056,-1955.7222,-85.5373
35.64,-0.0598,-0.0005,4.8876,-62.6404,228.7034,-1956.9750,-85.5384
35.66,-0.0597,-0.0005,4.8864,-62.6404,228.8011,-1958.2278,-85.5395
35.68,-0.0597,-0.0005,4.8852,-62.6404,228.8988,-1959.4806,-85.5406
35.70,-0.0597,-0.0005,4.8841,-62.6404,228.9965,-1960.7334,-85.5417
35.72,-0.0596,-0.0005,4.8829,-62.6404,229.0941,-1961.9862,-85.5428
35.74,-0.0596,-0.0004,4.8817,-62.6404,229.1918,-1963.2390,-85.5439
35.76,-0.0596,-0.0004,4.8805,-62.6404,229.2894,-1964.4918,-85.5449
35.78,-0.0595,-0.0004,4.8793,-62.6404,229.3870,-1965.7446,-85.5460
35.80,-0.0595,-0.0004,4.8781,-62.6404,229.4845,-1966.9974,-85.5471
35.82,-0.0595,-0.0004,4.8769,-62.6405,229.5821,-1968.2502,-85.5482
35.84,-0.0595,-0.0004,4.8757,-62.6405,229.6796,-1969.5031,-85.5493
35.86,-0.0594,-0.0004,4.8745,-62.6405,229.7771,-1970.7559,-85.5504
35.88,-0.0594,-0.0004,4.8733,-62.6405,229.8745,-1972.0087,-85.5514
35.90,-0.0594,-0.0004,4.8721,-62.6405,229.9720,-1973.2615,-85.5525
35.92,-0.0593,-0.0004,4.8710,-62.6405,230.0694,-1974.5143,-85.5536
35.94,-0.0593,-0.0004,4.8698,-62.6405,230.1668,-1975.7671,-85.5547
35.96,-0.0593,-0.0004,4.8686,-62.6405,230.2642,-1977.0199,-85.5558
35.98,-0.0593,-0.0004,4.8674,-62.6405,230.3615,-1978.2727,-85.5568
36.00,-0.0592,-0.0004,4.8662,-62.6405,230.4588,-1979.5255,-85.5579
36.02,-0.0592,-0.0004,4.8650,-62.6405,230.5561,-1980.7783,-85.5590
36.04,-0.0592,-0.0004,4.8639,-62.6405,230.6534,-1982.0312,-85.5601
36.06,-0.0591,-0.0004,4.8627,-62.6406,230.7507,-1983.2840,-85.5611
36.08,-0.0591,-0.0004,4.8615,-62.6406,230.8479,-1984.5368,-85.5622
36.10,-0.0591,-0.0004,4.8603,-62.6406,230.9451,-1985.7896,-85.5633
36.12,-0.0591,-0.0004,4.8591,-62.6406,231.0423,-1987.0424,-85.5644
36.14,-0.0590,-0.0004,4.8579,-62.6406,231.1395,-1988.2952,-85.5654
36.16,-0.0590,-0.0004,4.8568,-62.6406,231.2366,-1989.5480,-85.5665
36.18,-0.0590,-0.0004,4.8556,-62.6406,231.3337,-1990.8008,-85.5676
36.20,-0.0589,-0.0004,4.8544,-62.6406,231.4308,-1992.0536,-85.5687
36.22,-0.0589,-0.0004,4.8532,-62.6406,231.5279,-1993.3065,-85.5697
36.24,-0.0589,-0.0004,4.8521,-62.6406,231.6249,-1994.5593,-85.5708
36.26,-0.0589,-0.0004,4.8509,-62.6406,231.7219,-1995.8121,-85.5719
36.28,-0.0588,-0.0004,4.8497,-62.6406,231.8189,-1997.0649,-85.5729
36.30,-0.0588,-0.0004,4.8485,-62.6406,231.9159,-1998.3177,-85.5740
36.32,-0.0588,-0.0004,4.8473,-62.6407,232.0128,-1999.5705,-85.5751
36.34,-0.0587,-0.0004,4.8462,-62.6407,232.1097,-2000.8233,-85.5761
36.36,-0.0587,-0.0004,4.8450,-62.6407,232.2066,-2002.0761,-85.5772
36.38,-0.0587,-0.0004,4.8438,-62.6407,232.3035,-2003.3290,-85.5783
36.40,-0.0587,-0.0004,4.8426,-62.6407,232.4004,-2004.5818,-85.5793
36.42,-0.0586,-0.0004,4.8415,-62.6407,232.4972,-2005.8346,-85.5804
36.44,-0.0586,-0.0004,4.8403,-62.6407,232.5940,-2007.0874,-85.5815
36.46,-0.0586,-0.0004,4.8391,-62.6407,232.6908,-2008.3402,-85.5825
36.48,-0.0585,-0.0004,4.8380,-62.6407,232.7876,-2009.5930,-85.5836
36.50,-0.0585,-0.0004,4.8368,-62.6407,232.8843,-2010.8458,-85.5847
36.52,-0.0585,-0.0004,4.8356,-62.6407,232.9810,-2012.0987,-85.5857
36.54,-0.0585,-0.0003,4.8345,-62.6407,233.0777,-2013.3515,-85.5868
36.56,-0.0584,-0.0003,4.8333,-62.6407,233.1744,-2014.6043,-85.5879
